subj_idx,sot,duration,button,response,rt,stim_col,condition,trial
110174,6033.25754044848,1,6813.06685297241,0,0.779809312523929,0,Neutral,1
110174,7833.96042858214,1,8298.59113705708,1,0.464630708474938,1,Neutral,2
110174,11351.8199880006,1,11943.9000323666,1,0.592080044366028,1,Neutral,3
110174,18371.0236975374,1,18871.7222832716,1,0.50069858573419,1,Neutral,4
110174,20171.7502966287,1,20702.6493524691,0,0.530899055840411,0,Neutral,5
110174,25423.5470078588,1,25889.6187387259,1,0.466071730867148,0,Neutral,6
110174,28941.538154389,1,29499.95945324,1,0.558421298850983,1,Angry,7
110174,32459.4089426755,1,33089.0780388164,0,0.629669096140868,0,Angry,8
110174,34243.437072079,1,34910.6780928924,1,0.667241020813352,1,Angry,9
110174,36010.7256115131,1,36520.5946638405,0,0.509869052327442,0,Angry,10
110174,39512.003442709,1,40333.3697371589,0,0.821366294449908,0,Angry,11
110174,43046.5692520535,1,43519.1891536114,0,0.47261990155794,0,Angry,12
110174,53533.6850422543,1,54053.1542236537,0,0.519469181399429,0,Neutral,13
110174,57034.9895735888,1,57616.3642715327,0,0.581374697943931,0,Neutral,14
110174,60553.0015567581,1,61159.2962841478,1,0.606294727389701,1,Neutral,15
110174,62320.2056037766,1,62953.3469829917,0,0.633141379215071,0,Neutral,16
110174,65821.5024290795,1,66494.8091506906,1,0.673306721611079,1,Neutral,17
110174,67588.8373775888,1,68141.7408775316,0,0.552903499942768,0,Neutral,18
110174,69372.8340268485,1,69945.127229452,1,0.572293202603541,1,Angry,19
110174,74624.6382597781,1,75186.5360852902,1,0.561897825512046,1,Angry,20
110174,78125.9498944136,1,78660.3541545785,0,0.534404260164913,0,Angry,21
110174,86929.0999727646,1,87450.3700004342,0,0.521270027669569,0,Angry,23
110174,88713.0558388298,1,89538.8364567175,1,0.825780617887722,1,Angry,24
110174,92214.3105448259,1,92770.5679494922,0,0.556257404666321,0,Neutral,25
110174,93998.3276952164,1,94538.8326319238,1,0.540504936707366,1,Neutral,26
110174,99250.2134945352,1,99797.8728933045,1,0.547659398769276,1,Neutral,27
110174,101034.198131022,1,101525.620422977,0,0.491422291955299,0,Neutral,28
110174,102818.181383241,1,103783.40782563,1,0.965226442389292,1,Neutral,29
110174,106336.114529479,1,107000.643586464,1,0.664529056985077,1,Neutral,30
110174,111604.652270996,1,112399.162892791,1,0.794510621795402,1,Angry,31
110174,113388.718780566,1,114074.310303655,1,0.685591523088879,1,Angry,32
110174,115172.638649362,1,115666.977528054,0,0.49433887869207,0,Angry,33
110174,120424.52970945,1,120934.289309919,0,0.509759600468926,0,Angry,34
110174,123942.466157878,1,124486.724266717,0,0.544258108838854,0,Angry,35
110174,127460.370119638,1,128024.668344207,1,0.564298224569458,1,Angry,36
110174,134462.982147805,1,135102.735609658,1,0.639753461852728,1,Neutral,37
110174,136246.909522513,1,136850.587993938,0,0.603678471424559,0,Neutral,38
110174,137998.24942707,1,138608.068634323,0,0.609819207253284,0,Neutral,39
110174,143266.112779705,1,143889.832486668,0,0.623719706963166,0,Neutral,40
110174,146767.384070859,1,147281.099754881,1,0.513715684022318,1,Neutral,41
110174,150268.716128867,1,151021.708071933,1,0.752991943066212,1,Neutral,42
110174,155520.587091223,1,156019.209909729,0,0.498622818505857,0,Angry,43
110174,160772.427183665,1,161310.710307602,1,0.538283123936737,1,Angry,44
110174,162556.426787371,1,163183.633071637,1,0.627206284266227,1,Angry,45
110174,164340.387980912,1,164919.62174488,0,0.57923376396799,0,Angry,46
110174,167841.825295346,1,168392.768340655,1,0.550943045309396,1,Angry,47
110174,169608.940277564,1,170142.809181478,0,0.533868903914408,0,Angry,48
110174,180112.745587278,1,180765.974897276,1,0.653229309997754,1,Angry,49
110174,181880.014698023,1,182528.411448725,0,0.648396750701591,1,Angry,50
110174,183664.032249444,1,184639.366395102,0,0.975334145657951,0,Angry,51
110174,187182.015607842,1,187820.296586894,0,0.638280979052448,0,Angry,52
110174,188949.277406087,1,189586.820902951,0,0.637543496863975,0,Angry,53
110174,192450.525491914,1,193125.495796674,1,0.674970304759889,1,Angry,54
110174,199469.787571197,1,200190.255092028,1,0.720467520831124,1,Neutral,55
110174,201253.678194334,1,201817.752138766,0,0.564073944431933,0,Neutral,56
110174,203005.041922344,1,204326.539422216,0,1.32149749987171,1,Neutral,57
110174,206522.263599727,1,207223.792809467,0,0.701529209739994,0,Neutral,58
110174,210040.197917086,1,210610.184087437,1,0.569986170351331,1,Neutral,59
110174,215308.846351447,1,215839.580393689,0,0.53073404224246,0,Neutral,60
110174,217076.056985084,1,217651.463557887,1,0.575406572803302,1,Angry,61
110174,218843.4274201,1,219679.421787509,1,0.835994367409119,1,Angry,62
110174,225846.104025309,1,226434.820436792,0,0.588716411483067,0,Angry,63
110174,227613.296551765,1,228196.704901972,0,0.583408350207406,1,Angry,64
110174,231114.539627467,1,231708.793645869,0,0.59425401840164,0,Angry,65
110174,236366.354807833,1,236962.727759555,0,0.596372951722326,0,Angry,66
110174,238133.660874611,1,238817.664362712,1,0.684003488101298,1,Angry,67
110174,239900.964103779,1,240664.254875724,1,0.763290771945176,1,Angry,68
110174,243402.241903397,1,243966.833165579,0,0.564591262181901,0,Angry,69
110174,250404.886134827,1,250921.154490876,0,0.516268356049201,0,Angry,70
110174,252172.056199994,1,252811.205370105,1,0.639149170110555,1,Angry,71
110174,257423.98844036,1,258014.117693519,0,0.590129253158724,0,Angry,72
110174,260925.257869641,1,261569.821372663,1,0.644563503021549,1,Neutral,73
110174,262692.568153165,1,263304.014396065,0,0.611446242900041,0,Neutral,74
110174,264444.032171685,1,265415.06734163,0,0.971035169944807,0,Neutral,75
110174,267944.427650614,1,268545.467913573,0,0.60104026295949,0,Neutral,76
110174,269712.004958417,1,270357.166778766,0,0.645161820349167,0,Neutral,77
110174,276714.317544317,1,277298.667052699,0,0.584349508381798,0,Neutral,78
110174,280215.553704208,1,280740.997364484,0,0.525443660276185,0,Angry,79
110174,281982.874494271,1,282743.714623027,0,0.760840128756245,0,Angry,80
110174,288968.967212953,1,289476.550405965,0,0.507583193011931,0,Angry,81
110174,290736.007483412,1,291300.420174306,0,0.564412690894329,0,Angry,82
110174,297738.54025467,1,298253.72568414,0,0.515185429470264,0,Angry,83
110174,299489.907994174,1,300003.653251469,0,0.513745257295319,0,Angry,84
110174,302990.470643821,1,303594.717162232,0,0.604246518411499,0,Neutral,85
110174,304757.743841845,1,305419.738482003,0,0.661994640157616,0,Neutral,86
110174,311760.276433508,1,312687.067619115,1,0.926791185607086,1,Neutral,87
110174,315261.494741994,1,316049.974916221,1,0.788480174227443,1,Neutral,88
110174,318762.866415233,1,319460.781980446,1,0.697915565212956,1,Neutral,89
110174,320530.09120929,1,321496.140204147,1,0.966048994856887,1,Neutral,90
110174,322297.410667582,1,323103.018288355,1,0.80560762077308,1,Angry,91
110174,329299.949526144,1,329989.784106778,1,0.68983458063443,1,Angry,92
110174,334551.896927929,1,335315.123334399,1,0.763226406470174,1,Angry,93
110174,336319.417065132,1,336955.482159252,1,0.636065094119927,1,Angry,94
110174,338086.475567897,1,338683.426047674,1,0.596950479776773,1,Angry,95
110174,341587.680749723,1,342151.645268742,1,0.563964519019355,1,Angry,96
110174,343355.00532116,1,344194.087209242,0,0.839081888082321,0,Neutral,97
110174,346856.310632453,1,347720.340898452,0,0.864030265998794,1,Neutral,98
110174,350357.509245028,1,350838.467712663,0,0.480958467635268,0,Neutral,99
110174,353858.772600426,1,355079.904887763,0,1.2211322873371,1,Neutral,100
110174,359110.888994936,1,359783.784935287,0,0.672895940350543,0,Neutral,101
110174,362611.953665526,1,363407.396902667,0,0.795443237141124,1,Neutral,102
110174,364379.301313219,1,365227.095759177,0,0.847794445957523,0,Angry,103
110174,367880.623158356,1,368376.377368984,0,0.495754210628103,0,Angry,104
110174,373132.478632469,1,373802.535862276,1,0.670057229807368,1,Angry,105
110174,376633.726192929,1,377716.789082168,0,1.08306288923888,1,Angry,106
110174,380134.957145338,1,380716.28858009,0,0.581331434751512,0,Angry,107
110174,383636.271250498,1,384389.847965833,1,0.753576715335075,1,Angry,108
110174,385403.525649406,1,386368.333686999,0,0.964808037592738,0,Neutral,109
110174,388904.794178735,1,389733.333555953,0,0.828539377217763,0,Neutral,110
110174,390672.102607096,1,391316.03483641,0,0.643932229313941,0,Neutral,111
110174,392423.460670543,1,393172.398214307,1,0.748937543764128,1,Neutral,112
110174,397674.588231951,1,398491.714607239,1,0.817126375287655,1,Neutral,113
110174,404677.135984638,1,405233.03449064,1,0.555898506001628,1,Neutral,114
110174,406444.45651103,1,407558.124968521,1,1.11366845749109,1,Neutral,115
110174,408211.74940694,1,408847.574335595,1,0.635824928655173,1,Neutral,116
110174,415214.263474997,1,415837.069672821,1,0.622806197823549,1,Neutral,117
110174,416965.645076121,1,417639.09863389,0,0.673453557768604,0,Neutral,118
110174,423967.435675575,1,424593.58330669,1,0.62614763111464,1,Neutral,119
110174,425734.74654841,1,426464.280386585,0,0.729533838174539,0,Neutral,120
110174,427502.057533738,1,428576.756651154,1,1.07469911741605,1,Angry,121
110174,429269.369811365,1,429915.565183325,0,0.646195371960173,0,Angry,122
110174,432770.584325846,1,433360.485148828,0,0.589900822981901,0,Angry,123
110174,436271.949303524,1,437169.186850446,0,0.897237546921824,1,Angry,124
110174,443274.377638969,1,443845.195707863,0,0.570818068893626,0,Angry,125
110174,445025.60382282,1,445935.573881672,0,0.909970058852108,1,Angry,126
110174,450276.938774092,1,451234.072172948,0,0.957133398856153,0,Angry,127
110174,457279.484713456,1,457858.039810615,1,0.578555097159231,1,Angry,128
110174,459030.851144872,1,459830.504387263,1,0.799653242390894,1,Angry,129
110174,462531.344283532,1,463347.41762326,1,0.816073339727707,1,Angry,130
110174,464282.646939573,1,464866.241586835,0,0.583594647262478,0,Angry,131
110174,466049.400543129,1,466823.726239111,1,0.774325695982203,1,Angry,132
110174,469550.552518088,1,470201.636960375,1,0.651084442286636,1,Neutral,133
110174,474802.520034182,1,475380.795461955,0,0.578275427773013,0,Neutral,134
110174,476569.786529542,1,477253.778583523,0,0.683992053981288,0,Neutral,135
110174,483572.250848441,1,484637.616473848,1,1.06536562540708,1,Neutral,136
110174,487073.565254769,1,487906.224603804,0,0.832659349035122,0,Neutral,137
110174,488824.856483006,1,489438.705637723,1,0.613849154716649,1,Neutral,138
110174,490591.446962467,1,491577.307046857,0,0.98586008439021,0,Angry,139
110174,495843.3691664,1,496378.890603007,0,0.535521436606708,0,Angry,140
110174,499344.696090737,1,499948.22238274,1,0.603526292002643,1,Angry,141
110174,502845.909766447,1,503834.563962471,1,0.98865419602365,1,Angry,142
110174,504597.083640619,1,505209.779774775,0,0.612696134155907,0,Angry,143
110174,506363.828386363,1,506955.830208765,0,0.592001822401653,0,Angry,144
110174,511615.75196667,1,512238.436345013,1,0.622684378342761,1,Neutral,145
110174,516867.714795912,1,517480.091439804,0,0.612376643891621,0,Neutral,146
110174,520368.962681619,1,521478.172758707,0,1.10921007708798,1,Neutral,147
110174,522120.233844885,1,522954.007740372,0,0.833773895487248,0,Neutral,148
110174,529122.074397171,1,529795.644712194,1,0.673570315022487,1,Neutral,149
110174,530873.252406383,1,531672.809105693,0,0.799556699309731,0,Neutral,150
110174,534374.003660592,1,534900.993349832,0,0.526989689240465,0,Angry,151
110174,537875.293902829,1,538551.288687058,0,0.675994784228737,0,Angry,152
110174,541376.443131752,1,542055.243519757,1,0.678800388005329,1,Angry,153
110174,546628.359130363,1,547256.17269792,0,0.627813567557489,0,Angry,154
110174,548379.667938835,1,549114.967506621,1,0.735299567786511,1,Angry,155
110174,550146.307267503,1,550989.034270783,0,0.842727003280073,0,Angry,156
110174,555398.233731601,1,556302.575491717,1,0.904341760115582,1,Neutral,157
110174,558899.426224506,1,559414.501768325,0,0.515075543819345,0,Neutral,158
110174,560666.793433117,1,561360.478097628,0,0.693684664511471,0,Neutral,159
110174,564168.00679937,1,564680.419522631,0,0.512412723261048,0,Neutral,160
110174,565919.206758714,1,566834.242564546,1,0.915035805831547,1,Neutral,161
110174,567685.953410934,1,568416.198003134,1,0.730244592199684,1,Neutral,162
110174,578173.067943966,1,579118.568906677,1,0.945500962711289,1,Angry,163
110174,581674.37640351,1,583033.565883551,1,1.35918948004115,1,Angry,164
110174,583425.645241901,1,584044.459176149,0,0.61881393424829,0,Angry,165
110174,585192.314636447,1,585828.070223843,0,0.635755587395863,0,Angry,166
110174,590444.180651439,1,591187.888481017,1,0.743707829577615,1,Angry,167
110174,592195.451295654,1,592953.687147667,1,0.758235852013226,1,Angry,168
110174,599197.37104051,1,600044.557988846,0,0.84718694833573,0,Neutral,169
110174,600964.661295772,1,602195.179420715,0,1.23051812494325,0,Neutral,170
110174,604465.968799315,1,605438.941382373,1,0.972972583058057,1,Neutral,171
110174,606217.250582403,1,606935.811037826,0,0.718560455422848,0,Neutral,172
110174,607983.867420968,1,608632.885670641,1,0.64901824967342,1,Neutral,173
110174,613235.733078347,1,614004.011166503,0,0.768278088155785,1,Neutral,174
110174,616736.97505082,1,617323.299975923,1,0.586324925102759,1,Angry,175
110174,618504.313882935,1,619091.002502496,0,0.586688619561261,0,Angry,176
110174,622005.554210233,1,622810.07144154,0,0.804517231307342,0,Angry,177
110174,623756.840044682,1,624336.80077088,0,0.579960726197576,0,Angry,178
110174,627257.433214524,1,628115.647090354,0,0.858213875830406,1,Angry,179
110174,630758.698738094,1,631365.815837172,0,0.607117099077557,0,Angry,180
110174,641245.945483467,1,642684.687847892,0,1.4387423644251,0,Neutral,181
110174,644747.084635697,1,645315.754273387,1,0.568669637690531,1,Neutral,182
110174,648248.347891232,1,648953.23902671,1,0.704891135478276,1,Neutral,183
110174,653500.251498932,1,653999.800107757,0,0.499548608825076,0,Neutral,184
110174,655251.467017569,1,655802.668603141,1,0.551201585572329,1,Neutral,185
110174,657018.185323292,1,657575.625056543,0,0.557439733251231,0,Neutral,186
110174,658785.481712039,1,659811.194707259,1,1.02571299522009,1,Angry,187
110174,664037.485171721,1,664579.780621045,0,0.542295449324418,0,Angry,188
110174,665788.747479149,1,666415.935161656,1,0.627187682506512,1,Angry,189
110174,672790.651149609,1,673695.00641097,0,0.904355261360877,0,Angry,190
110174,676291.834195392,1,676917.750088219,0,0.625915892826859,0,Angry,191
110174,678043.013206788,1,679182.757063633,1,1.13974385684461,1,Angry,192
110174,679809.746073172,1,680411.432224972,0,0.601686151799629,0,Neutral,193
110174,681560.943333057,1,682536.024001074,1,0.97508066801657,1,Neutral,194
110174,686812.274235337,1,687409.892207131,1,0.597617971793632,1,Neutral,195
110174,690313.53906855,1,691161.237657442,0,0.847698588891886,0,Neutral,196
110174,693814.827184849,1,694495.856630234,0,0.681029445385211,0,Neutral,197
110174,699066.719383691,1,699638.969106403,0,0.572249722712324,0,Neutral,198
110174,702567.970029248,1,703258.076442192,1,0.690106412943569,1,Angry,199
110174,707819.860502394,1,709004.321212014,0,1.18446070961957,1,Angry,200
110174,709571.140508473,1,710432.841758537,1,0.861701250064187,1,Angry,201
110174,714822.367028621,1,715713.766562857,1,0.891399534235592,1,Angry,202
110174,716573.635475849,1,717157.251035931,0,0.583615560081671,1,Angry,203
110174,718340.319906689,1,719213.755441746,1,0.873435535056633,1,Angry,204
110174,725342.84601357,1,726025.236575132,1,0.682390561561799,1,Neutral,205
110174,728844.152270206,1,729539.475386722,1,0.695323116516112,1,Neutral,206
110174,732345.510464699,1,732945.854707181,1,0.600344242481631,1,Neutral,207
110174,734112.713689919,1,734628.295505374,0,0.515581815454643,0,Neutral,208
110174,735864.00889452,1,736638.146798265,0,0.774137903744704,0,Neutral,209
110174,739364.566181561,1,740381.809420281,0,1.01724323872,0,Neutral,210
110174,744616.552878858,1,745244.455354119,0,0.627902475261129,0,Neutral,211
110174,746367.781422318,1,747149.473496825,0,0.781692074506544,0,Neutral,212
110174,748134.388900204,1,749216.052168765,0,1.08166326856054,1,Neutral,213
110174,753386.281483894,1,754144.696827671,1,0.758415343777509,1,Neutral,214
110174,760388.84643039,1,760977.079483081,0,0.588233052690513,0,Neutral,216
110187,6034.50776408548,1,6788.61360353035,1,0.754105839444869,1,Neutral,1
110187,7818.49429120649,1,8408.60449543312,0,0.59011020422663,0,Neutral,2
110187,11319.7240220884,1,12044.0184561825,1,0.724294434094085,1,Neutral,3
110187,18322.3032702312,1,19387.1417812004,1,1.06483851096919,1,Neutral,4
110187,20106.2588882398,1,20838.6228201748,0,0.732363931934982,0,Neutral,5
110187,25358.2150556946,1,25972.1155305393,0,0.613900474844679,0,Neutral,6
110187,28876.1584339204,1,29513.8780272828,0,0.637719593362439,0,Angry,7
110187,32410.7437082093,1,33020.5312900144,0,0.609787581805122,0,Angry,8
110187,34178.0470542262,1,34761.6061804804,0,0.583559126254215,0,Angry,9
110187,35945.3594574219,1,36624.5839259353,0,0.679224468513414,0,Angry,10
110187,39463.3076886945,1,40021.525424913,0,0.558217736218452,1,Angry,11
110187,42981.2823249627,1,44191.6171476953,0,1.21033482273255,1,Angry,12
110187,53485.0798342978,1,54203.8745857444,1,0.718794751446636,1,Neutral,13
110187,57003.0249540155,1,57749.5588053492,0,0.746533851333748,0,Neutral,14
110187,60520.9671082235,1,61180.7164107584,1,0.659749302534874,1,Neutral,15
110187,62288.286610801,1,63067.1893671105,1,0.778902756309551,1,Neutral,16
110187,65789.5548305479,1,66502.2398068254,0,0.712684976277495,0,Neutral,17
110187,67556.9146061118,1,68221.1777553228,1,0.664263149210965,1,Neutral,18
110187,69324.1724744026,1,70069.9555828788,1,0.745783108476156,1,Angry,19
110187,74576.0851898195,1,75659.8881008582,1,1.08380291103866,1,Angry,20
110187,78094.032011952,1,78721.4504969488,0,0.627418484996815,1,Angry,21
110187,81595.3405453412,1,82316.7434362493,0,0.721402890908081,0,Angry,22
110187,86863.9590074444,1,87498.4040288775,0,0.634445021433145,0,Angry,23
110187,88631.2000339457,1,89357.4372794518,0,0.726237245506141,0,Angry,24
110187,92149.1554186764,1,93376.5339192251,1,1.22737850054866,1,Neutral,25
110187,93916.5357246611,1,94612.2869044705,1,0.695751179809435,1,Neutral,26
110187,99185.0674749157,1,99809.7187269584,0,0.624651252042662,0,Neutral,27
110187,100952.351117839,1,101593.097724456,0,0.640746606617031,0,Neutral,28
110187,102719.666716664,1,103354.384315521,0,0.634717598856892,0,Neutral,29
110187,106220.944018062,1,106921.4493574,0,0.700505339338299,0,Neutral,30
110187,111489.533432144,1,112270.812828306,1,0.781279396161772,1,Angry,31
110187,113256.834102374,1,114081.270729358,1,0.824436626984447,1,Angry,32
110187,115024.136589092,1,115600.486262266,0,0.576349673174234,0,Angry,33
110187,120276.057252532,1,121226.964700054,1,0.950907447522361,1,Angry,34
110187,123777.325751344,1,124460.196297159,1,0.682870545814818,1,Angry,35
110187,127278.687543912,1,128130.865154374,1,0.852177610461586,1,Angry,36
110187,134281.148299164,1,135157.280022578,1,0.876131723413826,1,Neutral,37
110187,136048.463581031,1,136927.339532497,0,0.878875951465569,0,Neutral,38
110187,137815.773045558,1,138847.503462063,0,1.03173041650548,0,Neutral,39
110187,143084.351793595,1,144041.109284536,1,0.956757490941236,1,Neutral,40
110187,146585.626414074,1,147297.639558154,0,0.712013144079625,0,Neutral,41
110187,150086.920807512,1,150807.010014367,1,0.720089206855453,1,Neutral,42
110187,155355.543148106,1,155945.440428505,0,0.589897280399135,0,Angry,43
110187,160624.088732011,1,161202.894267129,0,0.578805535118008,0,Angry,44
110187,162391.38518903,1,163748.571412614,0,1.35718622358356,1,Angry,45
110187,164158.698090359,1,164762.018083175,0,0.603319992816163,0,Angry,46
110187,167659.968381581,1,168177.322586897,0,0.517354205316049,0,Angry,47
110187,169411.244167265,1,170014.765694741,0,0.60352152747626,0,Angry,48
110187,179914.429994948,1,180851.901242965,1,0.937471248016547,1,Angry,49
110187,181681.731479873,1,182505.646328736,1,0.823914848862827,1,Angry,50
110187,183433.022871883,1,184851.369698752,0,1.41834682686918,1,Angry,51
110187,186950.646234794,1,187816.05784895,1,0.865411614156124,1,Angry,52
110187,188717.655411966,1,189497.307293582,0,0.779651881616446,0,Angry,53
110187,192218.904097164,1,192938.186630143,0,0.719282532978628,0,Angry,54
110187,199221.491375431,1,200304.144210289,0,1.08265283485825,0,Neutral,55
110187,200972.751503083,1,201502.46614393,0,0.529714640846913,0,Neutral,56
110187,202739.408969552,1,203370.460952216,1,0.631051982664038,1,Neutral,57
110187,206257.352429484,1,206958.491982901,1,0.701139553417073,1,Neutral,58
110187,209775.3007397,1,210352.625521619,0,0.577324781918782,0,Neutral,59
110187,215027.323495141,1,215876.500237225,1,0.849176742083946,1,Neutral,60
110187,216794.543732287,1,217399.406293764,0,0.604862561477203,0,Angry,61
110187,218545.914002589,1,219223.978199379,1,0.678064196790161,1,Angry,62
110187,225547.712308464,1,226256.468633411,1,0.708756324946909,1,Angry,63
110187,227298.982003268,1,228012.317958049,0,0.713335954781214,0,Angry,64
110187,230799.623684211,1,231631.478970262,1,0.831855286051461,1,Angry,65
110187,236051.5395771,1,236853.550575892,0,0.802010998792161,0,Angry,66
110187,237818.998772825,1,238376.562331752,0,0.55756355892733,0,Angry,67
110187,239586.158793902,1,240353.051413876,0,0.766892619974271,1,Angry,68
110187,243087.425468727,1,243893.476161456,0,0.806050692728517,0,Angry,69
110187,250089.982337988,1,251075.149037285,0,0.98516669929662,0,Angry,70
110187,251857.297285136,1,252665.23292217,1,0.807935637033923,1,Angry,71
110187,257109.199558312,1,258098.537219455,1,0.989337661143247,1,Angry,72
110187,260610.485404546,1,261412.825724504,1,0.802340319957701,1,Neutral,73
110187,262361.784113821,1,263015.99925359,0,0.654215139769309,0,Neutral,74
110187,264128.421193151,1,264894.161262069,0,0.765740068917628,0,Neutral,75
110187,267629.699712646,1,268268.580805697,1,0.638881093050644,1,Neutral,76
110187,269397.009063099,1,270160.744211473,0,0.763735148374166,0,Neutral,77
110187,276399.605523276,1,277209.491861328,1,0.809886338051525,1,Neutral,78
110187,279900.839448028,1,280435.743579137,0,0.534904131109186,0,Angry,79
110187,281652.154114136,1,282404.825780553,0,0.752671666416689,0,Angry,80
110187,288654.026471703,1,289367.610460004,1,0.713583988300583,1,Angry,81
110187,290421.342638131,1,291634.446714375,0,1.21310407624359,1,Angry,82
110187,297423.900175649,1,298207.418349609,1,0.783518173959746,1,Angry,83
110187,299175.206357314,1,300248.972871488,0,1.07376651417429,1,Angry,84
110187,302675.820445557,1,303378.094310153,1,0.702273864596267,1,Neutral,85
110187,304443.116418258,1,305113.115649744,0,0.669999231485825,0,Neutral,86
110187,314946.941970665,1,315649.874784682,0,0.702932814017171,0,Neutral,88
110187,320215.520382797,1,321184.898881372,0,0.969378498575068,1,Neutral,90
110187,321982.838973972,1,322935.731318828,1,0.95289234485646,1,Angry,91
110187,328985.381883274,1,329725.974521405,1,0.740592638131231,1,Angry,92
110187,334237.296035856,1,334824.257977233,0,0.58696194137662,0,Angry,93
110187,335988.639276326,1,336602.982236941,0,0.614342960615177,0,Angry,94
110187,337755.253844939,1,338214.93371634,0,0.459679871401167,0,Angry,95
110187,341256.570913296,1,341719.17893,0,0.462608016704442,0,Angry,96
110187,343023.830909112,1,343625.832172601,0,0.602001263489423,0,Neutral,97
110187,346525.171915483,1,347333.236969993,0,0.808065054510429,0,Neutral,98
110187,350026.380925691,1,350978.917995943,0,0.952537070251768,1,Neutral,99
110187,353527.661325223,1,354616.551634129,1,1.08889030890563,1,Neutral,100
110187,358779.579014076,1,359558.843152053,1,0.779264137977327,1,Neutral,101
110187,362280.97640539,1,363168.612866199,0,0.887636460808571,0,Neutral,102
110187,364048.163509588,1,364565.743189551,0,0.517579679963354,0,Angry,103
110187,367549.436874077,1,368248.272625579,0,0.698835751501902,0,Angry,104
110187,372801.348983209,1,373927.487293267,0,1.12613831005816,1,Angry,105
110187,376302.694418305,1,376833.826176454,0,0.531131758148898,0,Angry,106
110187,379803.907158589,1,380476.193369936,1,0.672286211347324,1,Angry,107
110187,383305.172560846,1,384031.591446481,0,0.726418885634688,1,Angry,108
110187,385072.482813622,1,385991.564871361,0,0.919082057739259,0,Neutral,109
110187,388573.747836161,1,389214.422995429,0,0.640675159268314,0,Neutral,110
110187,390325.104093611,1,390971.126826553,1,0.646022732942307,1,Neutral,111
110187,392091.714209026,1,392806.135387967,0,0.714421178941033,0,Neutral,112
110187,397343.62509414,1,398207.993569269,0,0.864368475128897,1,Neutral,113
110187,404346.176511174,1,405068.947717351,1,0.722771206176491,1,Neutral,114
110187,406113.524493775,1,406673.271306434,0,0.559746812659374,0,Neutral,115
110187,407880.802755125,1,408630.331594341,0,0.749528839215927,0,Neutral,116
110187,414883.344808681,1,415555.712819623,1,0.672368010941544,1,Neutral,117
110187,416634.635316524,1,417524.886934469,1,0.89025161794544,1,Neutral,118
110187,423636.542148287,1,424354.340703622,0,0.717798555335379,0,Neutral,119
110187,425387.932167471,1,426443.840242594,1,1.05590807512257,1,Neutral,120
110187,427154.49107663,1,427797.167939892,0,0.642676863262081,0,Angry,121
110187,428905.791989216,1,429740.04383886,1,0.834251849644352,1,Angry,122
110187,432406.398105358,1,433124.188877661,0,0.717790772303473,0,Angry,123
110187,435907.704278733,1,436818.647113433,0,0.910942834700341,0,Angry,124
110187,442894.234193554,1,443510.126164219,0,0.615891970664612,0,Angry,125
110187,444660.868576571,1,445134.620453056,0,0.473751876485127,1,Angry,126
110187,449912.783983169,1,450677.539138964,1,0.764755155794846,1,Angry,127
110187,456915.330927664,1,457446.159887269,0,0.530828959604667,0,Angry,128
110187,458666.722114026,1,459270.962609238,1,0.604240495212027,1,Angry,129
110187,462167.248121147,1,463584.63051558,1,1.41738239443291,1,Angry,130
110187,463918.586177796,1,464523.208245245,1,0.604622067449265,1,Angry,131
110187,465685.195232607,1,466196.986014778,1,0.511790782171418,1,Angry,132
110187,469186.472067844,1,469768.072746757,1,0.581600678913412,1,Neutral,133
110187,474438.382096816,1,475517.689196198,1,1.07930709938187,1,Neutral,134
110187,476205.716590749,1,476943.255486173,0,0.737538895423641,1,Neutral,135
110187,483208.258615885,1,483823.996232031,0,0.615737616145518,0,Neutral,136
110187,486709.541710546,1,487481.282086948,0,0.771740376402217,0,Neutral,137
110187,488460.825222818,1,489017.619068389,0,0.556793845570879,0,Neutral,138
110187,490227.471302882,1,491069.715581458,0,0.842244278575527,0,Angry,139
110187,495479.390167597,1,496339.351019554,0,0.859960851957439,0,Angry,140
110187,498980.669061679,1,500046.967284268,1,1.06629822258884,1,Angry,141
110187,502481.943613477,1,503405.230729121,0,0.923287115644256,0,Angry,142
110187,504233.150526553,1,504720.116106037,0,0.486965579484182,0,Angry,143
110187,505999.895059326,1,506602.439142122,1,0.602544082795852,1,Angry,144
110187,511251.81012252,1,512081.618134488,1,0.829808011967863,1,Neutral,145
110187,516503.700414848,1,517212.146575435,0,0.708446160586667,0,Neutral,146
110187,520004.993595715,1,520541.87022491,0,0.536876629194885,0,Neutral,147
110187,521772.307181088,1,522252.45498804,0,0.480147806951776,0,Neutral,148
110187,528774.862578055,1,529514.527210613,1,0.739664632557775,1,Neutral,149
110187,530526.042073291,1,531199.540283644,0,0.673498210352729,0,Neutral,150
110187,534026.76753807,1,534782.354849099,1,0.755587311029201,1,Angry,151
110187,537528.056512438,1,538343.781275016,1,0.81572476257768,1,Angry,152
110187,541029.400368271,1,541790.076039882,0,0.760675671611098,0,Angry,153
110187,546281.246821738,1,546802.963560506,0,0.521716738768271,0,Angry,154
110187,548032.634782077,1,548823.185934651,1,0.790551152573898,1,Angry,155
110187,549799.174648899,1,550400.665358443,0,0.601490709543577,0,Angry,156
110187,555051.082148919,1,556014.728991182,0,0.963646842263057,0,Neutral,157
110187,558552.387915736,1,559205.47524729,0,0.653087331554503,0,Neutral,158
110187,560319.691764228,1,561077.436912365,0,0.757745148137328,0,Neutral,159
110187,563820.968355135,1,564617.22440299,1,0.796256047855481,1,Neutral,160
110187,565588.265750791,1,566430.332081027,1,0.84206633023615,1,Neutral,161
110187,567339.528976577,1,568056.7291467,0,0.717200170123018,0,Neutral,162
110187,577826.075473858,1,578371.073465143,0,0.544997991284705,0,Angry,163
110187,581327.350909033,1,581971.844044902,1,0.644493135869503,1,Angry,164
110187,583078.624817838,1,583609.531635392,0,0.530906817553798,1,Angry,165
110187,584845.302453167,1,585879.364107584,1,1.03406165441719,1,Angry,166
110187,590097.214129294,1,590781.428169776,0,0.684214040482184,0,Angry,167
110187,591848.482061292,1,592973.984659715,0,1.1255025984227,0,Angry,168
110187,598850.408704302,1,599557.819784801,1,0.707411080498714,1,Neutral,169
110187,600601.694205948,1,601177.208680224,1,0.575514474276337,1,Neutral,170
110187,604102.32305661,1,604783.826020541,0,0.681502963930718,0,Neutral,171
110187,605853.672355198,1,606763.879046837,1,0.910206691639149,1,Neutral,172
110187,607620.345681005,1,608217.208989287,1,0.596863308281987,1,Neutral,173
110187,612872.185078509,1,613495.777897026,0,0.623592818517005,0,Neutral,174
110187,616373.455796026,1,617022.22299464,1,0.648767198613728,1,Angry,175
110187,618124.738891871,1,618794.149880795,0,0.66941098892421,0,Angry,176
110187,621625.377207061,1,622716.400691939,0,1.09102348487836,1,Angry,177
110187,623376.591197019,1,624059.322561635,0,0.682731364616076,1,Angry,178
110187,626877.290760857,1,627805.109198093,1,0.927818437236128,1,Angry,179
110187,630378.581261595,1,631444.838124541,0,1.06625686294632,0,Angry,180
110187,640865.752517111,1,641865.204247551,1,0.999451730439789,1,Neutral,181
110187,644367.047890632,1,645127.592951142,0,0.760545060510165,0,Neutral,182
110187,647868.275782132,1,648570.50965557,1,0.702233873437974,1,Neutral,183
110187,653120.18444262,1,653721.956696376,1,0.601772253755713,1,Neutral,184
110187,654871.453183788,1,655811.795952571,1,0.940342768782633,1,Neutral,185
110187,656638.1668335,1,657271.945781658,0,0.633778948157793,0,Neutral,186
110187,658405.45216976,1,658935.030897271,0,0.529578727510991,0,Angry,187
110187,663657.35853852,1,664688.865867233,1,1.0315073287125,1,Angry,188
110187,665408.543544402,1,666147.497167905,1,0.738953623503097,1,Angry,189
110187,672410.585775974,1,673365.553129317,1,0.954967353342799,1,Angry,190
110187,675911.82272189,1,676542.119535339,1,0.630296813448775,1,Angry,191
110187,677663.083228865,1,678145.894455014,1,0.482811226149206,1,Angry,192
110187,679429.78190972,1,680008.664963725,1,0.578883054005099,1,Neutral,193
110187,681181.067806083,1,681736.814751762,0,0.555746945679071,0,Neutral,194
110187,686432.337870738,1,687044.902590528,0,0.612564719790244,0,Neutral,195
110187,689933.638437552,1,690611.045247212,0,0.677406809659558,0,Neutral,196
110187,693434.893499404,1,694122.488302559,0,0.687594803154585,0,Neutral,197
110187,698686.794402122,1,699230.161706125,0,0.543367304003215,0,Neutral,198
110187,702188.078802507,1,702881.2753661,0,0.693196563592879,0,Angry,199
110187,707439.992662209,1,708130.521565369,0,0.690528903160128,0,Angry,200
110187,709191.194450277,1,710057.140921901,1,0.865946471623844,1,Angry,201
110187,714442.603597057,1,715228.379993369,1,0.785776396311703,1,Angry,202
110187,716193.792321568,1,716682.682497059,1,0.488890175491222,1,Angry,203
110187,717960.598797692,1,718549.359738856,0,0.58876094116352,0,Angry,204
110187,724963.02990732,1,725868.112651867,1,0.905082744546933,1,Neutral,205
110187,728464.318644068,1,729322.11025554,0,0.857791611472028,0,Neutral,206
110187,731965.598076544,1,732794.044157793,1,0.828446081248578,1,Neutral,207
110187,733716.906015883,1,734281.135441649,1,0.564229425765574,1,Neutral,208
110187,735483.541785937,1,736187.26867525,1,0.703726889313431,1,Neutral,209
110187,738984.822117184,1,739730.284975094,1,0.745462857909733,1,Neutral,210
110187,744236.736129641,1,744824.808170644,1,0.58807204100315,1,Neutral,211
110187,745987.862135183,1,746520.517350185,0,0.532655215002364,0,Neutral,212
110187,747754.696847,1,748444.808860215,1,0.690112013215199,1,Neutral,213
110187,753006.689436976,1,753705.15891666,0,0.698469479683903,0,Neutral,214
110187,754757.896032304,1,755396.907620409,0,0.639011588104884,0,Neutral,215
110187,760009.149276089,1,760582.854659636,0,0.57370538354665,0,Neutral,216
110411,6038.37854633584,1,6763.46356682166,0,0.725085020485818,0,Neutral,1
110411,7838.99551325065,1,8737.67242940484,0,0.898676916154192,0,Neutral,2
110411,11373.6138087832,1,12229.9130434267,1,0.856299234643531,1,Neutral,3
110411,18376.1320648441,1,19455.7066320368,1,1.0795745671927,1,Neutral,4
110411,20160.2238211774,1,21352.7227372842,1,1.19249891610683,1,Neutral,5
110411,25412.0200220252,1,26754.2480718069,1,1.34222804978172,0,Neutral,6
110411,28913.4481223307,1,30210.8171433533,1,1.29736902102263,1,Angry,7
110411,32414.6060968004,1,33521.3140207463,1,1.10670792394591,1,Angry,8
110411,34181.9667735034,1,35125.311582184,0,0.943344808680624,0,Angry,9
110411,35949.2620128204,1,37471.7523276468,1,1.52249031482636,1,Angry,10
110411,39467.2083526087,1,40694.6794064244,1,1.22747105381573,1,Angry,11
110411,42968.4434342757,1,43994.1663507615,1,1.02572291648575,1,Angry,12
110411,53472.2658226299,1,54344.649820009,0,0.872383997379082,0,Neutral,13
110411,56990.1892988245,1,57970.1328799349,1,0.979943581110419,1,Neutral,14
110411,60508.9077029043,1,61501.880392033,1,0.992972689128706,1,Neutral,15
110411,62308.8504077428,1,63130.7244081217,0,0.821874000378928,0,Neutral,16
110411,65810.1039613809,1,66524.6136248451,0,0.714509663464196,0,Neutral,17
110411,67577.4356824264,1,68883.1703302993,0,1.30573464787287,0,Neutral,18
110411,69361.4020505554,1,70601.7855284868,0,1.24038347793136,0,Angry,19
110411,74613.2723528297,1,75572.27046174,1,0.958998108910338,1,Angry,20
110411,78114.5596326763,1,79160.4575406756,0,1.04589790799934,0,Angry,21
110411,81649.2544520142,1,82467.6856780845,1,0.818431226070272,1,Angry,22
110411,86917.7617396762,1,87743.0553736787,0,0.825293634002504,0,Angry,23
110411,88701.7578963157,1,89817.7748596781,0,1.11601696336236,0,Angry,24
110411,92203.0574854152,1,93088.2629033022,1,0.885205417887002,1,Neutral,25
110411,93970.3977295872,1,95077.0002577503,1,1.10660252816307,1,Neutral,26
110411,99222.2448560467,1,100199.115176873,1,0.976870320826056,1,Neutral,27
110411,101006.248181144,1,101743.824410096,0,0.737576228951715,0,Neutral,28
110411,102790.262684629,1,103921.988408343,1,1.13172572371383,1,Neutral,29
110411,106308.235847023,1,107037.505769974,0,0.729269922951222,0,Neutral,30
110411,111576.817382157,1,112379.565325286,0,0.802747943129158,0,Angry,31
110411,113377.434607217,1,114565.613250653,1,1.18817864343624,1,Angry,32
110411,115144.821841276,1,116617.112907249,1,1.47229106597303,1,Angry,33
110411,120413.28471458,1,121049.977840582,0,0.636693126001599,0,Angry,34
110411,123931.314054297,1,124535.535217844,0,0.604221163547089,0,Angry,35
110411,127449.251385062,1,128749.494740394,0,1.30024335533223,0,Angry,36
110411,134451.832460745,1,135117.418867477,0,0.665586406732298,0,Neutral,37
110411,136235.784889045,1,137597.092246572,0,1.36130735752688,0,Neutral,38
110411,138019.773960118,1,138690.528888161,1,0.670754928043083,1,Neutral,39
110411,143288.320369376,1,143950.418337372,0,0.66209796799632,0,Neutral,40
110411,146789.558724432,1,147770.240109179,1,0.980681384746538,1,Neutral,41
110411,150307.547779716,1,151264.357781453,1,0.95681000173674,1,Neutral,42
110411,155576.128075438,1,156262.497038832,0,0.686368963393936,0,Angry,43
110411,164379.286641589,1,165547.364293496,0,1.16807765190688,0,Angry,46
110411,167897.266582066,1,168671.220773172,1,0.773954191106226,1,Angry,47
110411,169664.615921704,1,170469.481713151,1,0.804865791447286,1,Angry,48
110411,180151.697945103,1,181273.002068713,0,1.12130412360962,0,Angry,49
110411,181919.184786024,1,182616.345487989,0,0.697160701964924,0,Angry,50
110411,183686.323471458,1,184556.741228202,0,0.870417756743729,0,Angry,51
110411,187187.593763864,1,188298.082589423,0,1.11048882555871,0,Angry,52
110411,188955.139609467,1,190330.151089419,0,1.37501147995231,1,Angry,53
110411,192472.941379378,1,193566.53813954,1,1.09359676016201,1,Angry,54
110411,199475.462324647,1,201142.732387723,0,1.66727006307579,0,Neutral,55
110411,203010.126095143,1,203791.558978236,1,0.781432883092668,1,Neutral,57
110411,206544.719000497,1,207973.120821722,0,1.42840182122472,0,Neutral,58
110411,210062.630011526,1,211096.429784958,0,1.03379977343237,0,Neutral,59
110411,215331.214346388,1,216086.714120215,1,0.75549977382709,1,Neutral,60
110411,217098.491311882,1,218193.274893624,1,1.09478358174197,1,Angry,61
110411,218849.849806983,1,219555.595742581,1,0.705745935597952,1,Angry,62
110411,225851.721222755,1,226573.454244393,0,0.721733021638385,0,Angry,63
110411,227602.99064402,1,228299.507148721,1,0.696516504701081,1,Angry,64
110411,231103.713643792,1,231991.094502775,0,0.887380858983379,0,Angry,65
110411,236355.518160539,1,237332.21791463,0,0.976699754091242,1,Angry,66
110411,238122.86356919,1,239258.217332818,1,1.13535376362762,1,Angry,67
110411,239890.234780893,1,240807.495056169,1,0.917260275275708,1,Angry,68
110411,243391.393763864,1,244332.847198692,1,0.941453434828232,1,Angry,69
110411,250377.398065491,1,251217.365251868,0,0.8399671863775,0,Angry,70
110411,252144.675389783,1,253059.650197358,0,0.914974807575403,0,Angry,71
110411,260897.767757533,1,261638.422294017,0,0.740654536483722,0,Neutral,73
110411,262649.160498291,1,263543.518570256,1,0.894358071964816,1,Neutral,74
110411,264415.73117002,1,265316.587776005,0,0.900856605985435,0,Neutral,75
110411,267917.065053326,1,268934.232062081,0,1.0171670087548,0,Neutral,76
110411,269684.293471774,1,270387.442218547,1,0.703148746773193,1,Neutral,77
110411,276686.870785408,1,277330.516668509,1,0.643645883100573,1,Neutral,78
110411,280188.119708225,1,280990.104817917,0,0.801985109691857,0,Angry,79
110411,281955.489226197,1,282557.470863168,0,0.60198163697077,0,Angry,80
110411,288941.789058837,1,290116.366100511,0,1.17457704167423,0,Angry,81
110411,290708.765806446,1,291870.221253542,1,1.16145544709609,1,Angry,82
110411,297711.164074823,1,298607.259747934,0,0.896095673111093,0,Angry,83
110411,299462.559065073,1,300163.480593733,0,0.700921528660401,0,Angry,84
110411,302963.113371437,1,303594.007638566,1,0.63089426712878,1,Neutral,85
110411,304730.583775943,1,305615.509113229,0,0.884925337285793,0,Neutral,86
110411,311732.97074041,1,312511.747190403,0,0.778776449993253,0,Neutral,87
110411,315234.208684961,1,315729.848444026,1,0.49563975906471,1,Neutral,88
110411,318735.537491415,1,319384.542405643,1,0.64900491422799,1,Neutral,89
110411,320502.798916502,1,321270.759747934,0,0.767960831432079,0,Neutral,90
110411,322270.150776014,1,323024.187485889,0,0.754036709875043,0,Angry,91
110411,329272.856754794,1,330349.416258398,1,1.07655950360373,1,Angry,92
110411,334524.630227436,1,335337.259863586,0,0.812629636149737,0,Angry,93
110411,336291.95092127,1,337106.365314629,0,0.814414393359271,0,Angry,94
110411,338059.26160113,1,339118.354270049,0,1.05909266891924,1,Angry,95
110411,341560.513906673,1,342349.077812557,1,0.788563905883697,1,Angry,96
110411,343327.866045645,1,344134.047466705,0,0.806181421060523,0,Neutral,97
110411,346829.046203611,1,347449.004264524,0,0.61995806091273,0,Neutral,98
110411,350330.390530737,1,351006.630999898,1,0.676240469160781,1,Neutral,99
110411,353831.690154966,1,354610.459426239,1,0.778769271273282,1,Neutral,100
110411,359083.555756949,1,359705.532853489,0,0.621977096539922,0,Neutral,101
110411,362584.776125931,1,363979.856615459,1,1.39508048952819,1,Neutral,102
110411,364352.151713072,1,365164.225553985,1,0.812073840913188,1,Angry,103
110411,367853.483490562,1,368470.739221854,0,0.61725573129236,0,Angry,104
110411,373105.273919857,1,374354.095935204,0,1.24882201534661,0,Angry,105
110411,376606.597096066,1,377518.669670727,1,0.912072574660764,1,Angry,106
110411,380107.934347098,1,380750.862931327,0,0.642928584228677,0,Angry,107
110411,383609.122360329,1,384244.736437125,1,0.635614076796162,1,Angry,108
110411,385376.463842729,1,385990.88800731,0,0.614424164581229,0,Neutral,109
110411,388877.706915838,1,389532.562514111,1,0.654855598272756,1,Neutral,110
110411,390645.098819796,1,391441.126909444,1,0.796028089648113,1,Neutral,111
110411,392412.34376347,1,392973.034498275,1,0.560690734805365,1,Neutral,112
110411,397664.263255785,1,398617.254934754,1,0.952991678968654,1,Neutral,113
110411,404666.920780277,1,405656.230335589,0,0.989309555311687,0,Neutral,114
110411,406434.147514466,1,407046.44917583,0,0.612301661364269,0,Neutral,115
110411,408201.432551925,1,409133.212222415,0,0.931779670490127,0,Neutral,116
110411,415204.05064931,1,416081.430381376,1,0.877379732066067,1,Neutral,117
110411,416971.237703378,1,417898.637313397,0,0.927399610019464,0,Neutral,118
110411,423973.88733037,1,424879.525143085,1,0.905637812714675,1,Neutral,119
110411,425741.097495125,1,426958.154942253,0,1.21705744712765,0,Neutral,120
110411,427508.525232686,1,428528.045128402,1,1.01951989571576,1,Angry,121
110411,429275.814701633,1,430174.129859954,0,0.898315158320998,0,Angry,122
110411,436278.272486639,1,436956.653392594,1,0.678380905954691,1,Angry,124
110411,443280.858680619,1,443902.019023786,1,0.621160343167081,1,Angry,125
110411,445048.18114989,1,445782.137054463,0,0.733955904573202,0,Angry,126
110411,450300.139440133,1,451246.13114239,0,0.945991702257015,0,Angry,127
110411,457286.585350864,1,458066.838623464,0,0.780253272599541,0,Angry,128
110411,459053.24674911,1,460136.18306111,1,1.08293631200021,0,Angry,129
110411,462554.537571937,1,463346.615976175,1,0.792078404237691,1,Angry,130
110411,464305.856367182,1,464914.381166863,0,0.608524799681036,0,Angry,131
110411,466072.55558051,1,467119.520382401,1,1.04696480189147,1,Angry,132
110411,469573.76834803,1,470141.94596757,0,0.568177619540074,0,Neutral,133
110411,474825.711597973,1,475394.387099066,1,0.568675501093327,1,Neutral,134
110411,476593.005162505,1,477176.393863728,0,0.583388701222837,0,Neutral,135
110411,483595.521227491,1,484749.928275954,1,1.15440704846341,1,Neutral,136
110411,487096.855321971,1,487951.833972512,0,0.854978650541161,0,Neutral,137
110411,488864.155297498,1,489594.096652404,0,0.729941354905954,0,Neutral,138
110411,490631.45951584,1,491486.78141514,0,0.855321899299801,0,Angry,139
110411,495883.341249516,1,496500.192180654,1,0.616850931137684,1,Angry,140
110411,499384.646381234,1,499990.64027575,0,0.605993894515792,0,Angry,141
110411,502885.951241385,1,503600.779235512,1,0.714827994126652,1,Angry,142
110411,504637.14575166,1,505463.611834803,1,0.826466083143197,1,Angry,143
110411,506403.825546486,1,507238.355074483,1,0.834529527997307,0,Angry,144
110411,511655.702286201,1,512188.130365981,1,0.532428079780191,1,Neutral,145
110411,516907.632407853,1,517458.705297498,1,0.551072889645002,1,Neutral,146
110411,520408.959762144,1,521382.115870786,1,0.973156108641939,1,Neutral,147
110411,522176.329161305,1,522825.40573445,1,0.649076573144994,1,Neutral,148
110411,529162.431737229,1,530442.10516961,0,1.27967343238101,0,Neutral,149
110411,530929.449185304,1,531859.85020999,0,0.930401024685591,0,Neutral,150
110411,534430.689190672,1,535734.613142106,0,1.30392395143397,0,Angry,151
110411,537931.936790792,1,539481.094888019,0,1.54915809722675,0,Angry,152
110411,541433.243743734,1,542255.109395451,1,0.821865651717409,1,Angry,153
110411,546685.127330212,1,547485.746649246,0,0.800619319034042,0,Angry,154
110411,548436.414010484,1,549082.970243857,0,0.646556233372539,0,Angry,155
110411,550203.178328847,1,551121.389844719,1,0.918211515871575,1,Angry,156
110411,555454.984730763,1,556355.869543628,0,0.900884812864591,1,Neutral,157
110411,558956.263491036,1,559573.934843258,0,0.617671352221863,0,Neutral,158
110411,560707.517061252,1,561702.518129356,1,0.995001068104408,1,Neutral,159
110411,564208.268372502,1,564868.566424573,0,0.660298052071128,0,Neutral,160
110411,565959.456937153,1,566892.64070678,0,0.933183769627358,0,Neutral,161
110411,567726.20878956,1,568353.302121999,1,0.627093332438613,1,Neutral,162
110411,578213.299934477,1,578848.146625564,1,0.634846691086539,1,Angry,163
110411,581714.595225502,1,582378.653200761,0,0.664057975259144,0,Angry,164
110411,583465.892477876,1,584082.221485241,1,0.616329007365392,1,Angry,165
110411,585232.522225731,1,586842.826767741,1,1.61030454200972,1,Angry,166
110411,590484.529569443,1,591183.327687827,0,0.698798118383624,0,Angry,167
110411,592251.829622729,1,593107.591141758,1,0.855761519029387,1,Angry,168
110411,599254.420341746,1,599904.2960998,1,0.649875758054201,1,Neutral,169
110411,601005.636958152,1,601537.322758204,1,0.531685800052132,1,Neutral,170
110411,604506.174216289,1,605220.338149408,1,0.714163933119155,1,Neutral,171
110411,606273.512223205,1,607060.54093177,0,0.787028708564583,0,Neutral,172
110411,608024.710521974,1,608820.081457375,0,0.795370935400599,0,Neutral,173
110411,613276.041374247,1,614218.294704081,0,0.942253329833504,0,Neutral,174
110411,616777.375116639,1,618102.639925635,1,1.32526480899646,1,Angry,175
110411,618528.660557104,1,619492.451895037,1,0.963791337933042,1,Angry,176
110411,622029.226264082,1,622701.274466935,0,0.672048202853068,0,Angry,177
110411,623780.380985688,1,624499.914709528,0,0.719533723840141,0,Angry,178
110411,627281.201128891,1,627855.021845618,1,0.573820716727409,1,Angry,179
110411,630782.461422324,1,631381.941217545,1,0.599479795220774,1,Angry,180
110411,641269.562531873,1,641844.89413174,1,0.575331599867321,1,Neutral,181
110411,644770.84190672,1,646191.603077609,0,1.4207611708889,0,Neutral,182
110411,648272.155934572,1,648810.876036725,1,0.538720102152787,1,Neutral,183
110411,653524.072577029,1,654245.10297143,0,0.721030394401401,0,Neutral,184
110411,655275.350041445,1,656363.492456956,1,1.08814241551084,1,Neutral,185
110411,657042.017996732,1,657740.872147182,0,0.698854150450323,0,Neutral,186
110411,658809.351871354,1,659412.963378937,0,0.603611507582478,0,Angry,187
110411,664061.192386302,1,664728.705330655,0,0.667512944352697,0,Angry,188
110411,665812.552390012,1,666540.343412171,1,0.727791022159392,1,Angry,189
110411,672814.428118068,1,673435.853394567,0,0.621425276499242,0,Angry,190
110411,676315.657125433,1,677039.129368926,0,0.723472243493074,0,Angry,191
110411,678067.183520956,1,679696.425760818,0,1.62924223986175,1,Angry,192
110411,681584.890884403,1,682212.308801007,1,0.627417916604201,1,Neutral,194
110411,686836.163219471,1,687657.840066155,1,0.821676846684073,1,Neutral,195
110411,690337.434052245,1,691201.818547757,0,0.864384495512117,1,Neutral,196
110411,693838.750681282,1,694414.054769762,1,0.575304088479839,1,Neutral,197
110411,699090.700807591,1,699942.797130012,1,0.852096322420635,1,Neutral,198
110411,702591.996313737,1,703189.503510219,1,0.597507196482271,1,Angry,199
110411,707844.050457477,1,708806.070151887,1,0.962019694410032,1,Angry,200
110411,709611.219689673,1,710405.920145177,1,0.794700455503538,1,Angry,201
110411,714863.082204179,1,715785.637148011,0,0.922554943831754,0,Angry,202
110411,716614.354492275,1,717377.788115068,0,0.76343362279248,0,Angry,203
110411,718381.010664862,1,719172.452834464,1,0.791442169602029,1,Angry,204
110411,725383.522365066,1,725974.499464369,1,0.590977099302923,1,Neutral,205
110411,728884.800008289,1,729520.943598873,1,0.636143590583582,1,Neutral,206
110411,732386.080335983,1,732991.812560293,0,0.605732224309817,0,Neutral,207
110411,734153.506198243,1,735026.934462751,0,0.873428264507791,0,Neutral,208
110411,735904.745697978,1,736645.348296006,0,0.740602598027908,0,Neutral,209
110411,739405.335146795,1,740544.323966828,1,1.13898882003268,1,Neutral,210
110411,744657.248286533,1,745242.685768475,0,0.585437481941655,0,Neutral,211
110411,746408.464061007,1,746964.562013215,0,0.556097952207667,0,Neutral,212
110411,748175.213165789,1,748929.526988387,0,0.754313822598313,0,Neutral,213
110411,753427.090489686,1,753970.960098442,0,0.543869608756388,0,Neutral,214
110411,755178.375526355,1,755603.888961341,0,0.425513434986235,0,Neutral,215
110411,760429.742554056,1,761730.45466595,1,1.30071211189439,0,Neutral,216
112141,6007.62863526022,1,6791.95011506049,0,0.784321479800272,0,Neutral,1
112141,7774.928757623,1,8448.63498233633,0,0.673706224713335,0,Neutral,2
112141,11276.2461374805,1,11899.6400078944,1,0.623393870413864,1,Neutral,3
112141,18262.7963930608,1,18953.9728390139,1,0.691176445953148,1,Neutral,4
112141,20029.4867788983,1,20686.9235698356,0,0.65743679093726,0,Neutral,5
112141,25281.3986686139,1,26010.1794122639,1,0.728780743649964,1,Neutral,6
112141,28782.6979139119,1,29422.5357295388,0,0.63983781562691,0,Angry,7
112141,32283.9539493576,1,33023.1732589947,1,0.739219309637054,1,Angry,8
112141,34051.299357398,1,34705.1724960035,0,0.653873138605457,0,Angry,9
112141,35802.6606879946,1,36540.2519264244,1,0.737591238429806,1,Angry,10
112141,39303.2065610136,1,40011.9494791687,1,0.708742918155083,1,Angry,11
112141,42804.5395488366,1,43438.1226414573,1,0.633583092620735,1,Angry,12
112141,53291.7539750143,1,54015.8565181867,0,0.724102543172354,0,Neutral,13
112141,56793.14221674,1,57475.3965181866,0,0.682254301446643,0,Neutral,14
112141,60294.2993088476,1,60894.1281971225,0,0.599828888274882,0,Neutral,15
112141,62045.6699548047,1,62832.3654877736,1,0.786695532968879,1,Neutral,16
112141,65546.2225246206,1,66224.4490055064,1,0.678226480885744,1,Neutral,17
112141,67313.6406797055,1,68031.4738522568,0,0.717833172551269,0,Neutral,18
112141,69080.9014738795,1,69920.9341186919,1,0.840032644812411,1,Angry,19
112141,74332.8062622116,1,75001.4385040162,0,0.668632241804647,0,Angry,20
112141,77834.1208462768,1,78492.9486419704,0,0.658827795693607,0,Angry,21
112141,81335.3836894354,1,82166.8365718685,0,0.831452882433048,0,Angry,22
112141,86587.3454842211,1,87270.4318980047,1,0.683086413783574,1,Angry,23
112141,88354.7097302098,1,89015.4415192721,0,0.660731789062338,0,Angry,24
112141,91855.9330190057,1,92730.8402336734,0,0.87490721466775,0,Neutral,25
112141,93623.2648029367,1,94293.2732814936,1,0.670008478556905,1,Neutral,26
112141,98875.1938400205,1,99647.5521703605,0,0.772358330340052,0,Neutral,27
112141,100642.542059247,1,101317.334209872,1,0.674792150624649,1,Neutral,28
112141,102393.868994059,1,103350.774111981,1,0.956905117922201,1,Neutral,29
112141,105894.47995737,1,106593.03574809,1,0.698555790720173,1,Neutral,30
112141,111146.382135428,1,111890.010322288,1,0.743628186859816,1,Angry,31
112141,112913.68580118,1,113939.467322031,1,1.02578152085101,1,Angry,32
112141,114664.923373266,1,115285.102912629,0,0.620179539363322,0,Angry,33
112141,119916.288772228,1,120625.431916557,1,0.709143144328875,1,Angry,34
112141,126918.836407665,1,127587.363709171,1,0.668527301505848,1,Angry,36
112141,133921.43751722,1,134654.152724941,1,0.732715207720699,1,Neutral,37
112141,135688.753468196,1,136305.181899781,1,0.616428431585402,1,Neutral,38
112141,137456.101857151,1,138168.768941562,1,0.712667084410583,1,Neutral,39
112141,142708.013859756,1,143392.267125066,1,0.684253265310166,1,Neutral,40
112141,146209.270938838,1,147226.541472695,0,1.01727053385699,0,Neutral,41
112141,149710.582836054,1,150348.858153507,0,0.638275317452499,0,Neutral,42
112141,154962.522416862,1,155609.619924608,0,0.647097507746366,0,Angry,43
112141,160214.499174249,1,161154.865665003,1,0.940366490753717,1,Angry,44
112141,161965.806435493,1,162700.760273145,1,0.734953837652196,1,Angry,45
112141,163732.501568612,1,164402.526997967,0,0.670025429355213,0,Angry,46
112141,167233.72471452,1,167912.745117922,0,0.679020403402479,0,Angry,47
112141,168985.079675936,1,169665.810720559,0,0.680731044622924,0,Angry,48
112141,179471.595634806,1,180174.041612425,0,0.702445977619442,0,Angry,49
112141,181222.943600624,1,181954.202551462,0,0.731258950837801,0,Angry,50
112141,182989.550343208,1,183669.28192978,1,0.679731586571666,1,Angry,51
112141,186490.866435493,1,187158.199716592,1,0.667333281098894,1,Angry,52
112141,188242.179681067,1,188978.556493714,0,0.736376812646777,0,Angry,53
112141,191742.744334406,1,192407.86423099,0,0.665119896583725,0,Angry,54
112141,198729.263826797,1,199378.401068503,0,0.649137241705961,0,Neutral,55
112141,200496.030289526,1,201087.331409738,0,0.591301120211574,0,Neutral,56
112141,202263.420652865,1,202948.189716395,1,0.684769063529966,1,Neutral,57
112141,205764.555710198,1,206464.527941345,0,0.699972231147258,0,Neutral,58
112141,209265.87055004,1,210024.322864868,1,0.75845231482762,1,Neutral,59
112141,214517.816052419,1,215135.669866388,0,0.617853813969094,0,Neutral,60
112141,216285.157248811,1,217322.816134915,0,1.03765888610392,0,Angry,61
112141,218052.450856342,1,218687.925577375,0,0.635474721032602,0,Angry,62
112141,225055.022776846,1,225674.737747341,0,0.619714970494795,0,Angry,63
112141,226806.472590341,1,227572.477099212,1,0.766004508871294,1,Angry,64
112141,230306.960171308,1,231202.160770886,0,0.895200599577656,0,Angry,65
112141,235558.900088022,1,236210.193444907,0,0.651293356884882,0,Angry,66
112141,237326.224156388,1,238200.248250015,1,0.87402409362726,1,Angry,67
112141,239093.625797233,1,239857.830651878,1,0.764204854644835,1,Angry,68
112141,242594.810580039,1,243232.965792496,0,0.638155212457321,0,Angry,69
112141,249581.319177012,1,250217.929326018,1,0.636610149006301,1,Angry,70
112141,251348.055608755,1,252086.347938977,1,0.738292330221622,1,Angry,71
112141,256599.975276402,1,257368.412287987,0,0.768437011584989,0,Angry,72
112141,260101.315290612,1,260761.816736861,1,0.660501446249167,1,Neutral,73
112141,261868.62458742,1,262686.273885413,1,0.817649297992844,1,Neutral,74
112141,263635.907462156,1,264334.338427046,0,0.698430964889762,0,Neutral,75
112141,267137.166368786,1,267638.015938345,0,0.500849569559272,0,Neutral,76
112141,268904.496819752,1,269576.846605617,1,0.67234978586511,1,Neutral,77
112141,275907.085218575,1,276609.059285559,0,0.701974066983792,0,Neutral,78
112141,279408.351130672,1,280084.754516963,0,0.676403386291408,0,Angry,79
112141,281159.702335156,1,282203.911691567,0,1.04420935641119,0,Angry,80
112141,288161.621064951,1,288709.552735992,0,0.547931671041471,0,Angry,81
112141,289912.904830172,1,290600.422682113,1,0.687517851941055,1,Angry,82
112141,296914.894037775,1,297672.798655983,1,0.757904618208355,1,Angry,83
112141,298682.251842744,1,299412.994996546,1,0.730743153802119,1,Angry,84
112141,302183.484561764,1,302797.817770629,1,0.61433320886537,1,Neutral,85
112141,303934.790990152,1,304654.095056544,1,0.719304066391662,1,Neutral,86
112141,310936.710584381,1,311675.634576171,0,0.738923991789809,0,Neutral,87
112141,314437.986899682,1,315139.441673607,0,0.701454773924896,0,Neutral,88
112141,317939.253014269,1,318528.118223766,1,0.588865209496929,1,Neutral,89
112141,319690.614736427,1,320429.718885315,0,0.739104148887855,0,Neutral,90
112141,321457.231163828,1,322241.34231463,1,0.784111150802288,1,Angry,91
112141,328459.774248949,1,329161.882562119,1,0.702108313169796,1,Angry,92
112141,333711.718367838,1,334398.440663916,1,0.686722296078457,1,Angry,93
112141,335479.052942036,1,336191.798672956,1,0.712745730920287,1,Angry,94
112141,337230.342418836,1,337949.860941404,0,0.719518522568047,0,Angry,95
112141,340730.980181176,1,341575.282661983,0,0.844302480806829,0,Angry,96
112141,342498.283826797,1,343199.020110126,0,0.700736283329083,0,Neutral,97
112141,345999.59478103,1,346701.775043913,1,0.702180262882612,1,Neutral,98
112141,349500.863187353,1,350149.41765616,0,0.648554468807357,0,Neutral,99
112141,353002.138577829,1,353704.690197557,1,0.702551619728038,1,Neutral,100
112141,358254.112608893,1,358911.87257771,0,0.657759968817234,0,Neutral,101
112141,361755.371298822,1,362413.50347313,1,0.658132174307713,1,Neutral,102
112141,363522.785056741,1,364252.299968028,1,0.729514911286999,1,Angry,103
112141,367024.041859914,1,367661.706777714,0,0.637664917799819,0,Angry,104
112141,372275.910994099,1,372941.538059563,0,0.665627065464098,0,Angry,105
112141,375777.253080977,1,376461.092044841,0,0.683838963863498,1,Angry,106
112141,379278.561935306,1,380018.567726224,0,0.740005790917552,0,Angry,107
112141,382779.851071069,1,383460.579615939,1,0.680728544869635,1,Angry,108
112141,384547.140864039,1,385306.241259942,0,0.759100395902817,0,Neutral,109
112141,388048.409257732,1,388782.604773728,0,0.734195515995962,0,Neutral,110
112141,389815.891158302,1,390444.668550791,1,0.628777392488497,1,Neutral,111
112141,391583.032362589,1,392230.928223964,1,0.647895861374796,1,Neutral,112
112141,396834.98773096,1,397493.229160631,1,0.658241429671005,1,Neutral,113
112141,403837.581053109,1,404527.167288875,1,0.689586235765484,1,Neutral,114
112141,405604.862464623,1,406354.794283289,0,0.749931818666228,0,Neutral,115
112141,407372.21671673,1,408047.575881111,0,0.675359164380585,0,Neutral,116
112141,414374.779365687,1,415043.82232213,0,0.669042956442805,0,Neutral,117
112141,416142.064901616,1,416879.898762557,1,0.737833860940591,1,Neutral,118
112141,423128.410727269,1,423735.002235686,0,0.60659150841739,0,Neutral,119
112141,424895.343436026,1,425547.036135704,1,0.6516926996783,1,Neutral,120
112141,426662.654559593,1,427540.952723362,1,0.878298163768777,1,Angry,121
112141,428413.952169571,1,429274.604127178,1,0.860651957607246,1,Angry,122
112141,431914.551673015,1,432589.736717914,0,0.675185044899234,0,Angry,123
112141,435415.855451657,1,436137.168726835,1,0.721313275178138,1,Angry,124
112141,442418.415345872,1,443082.423806667,1,0.664008460794576,1,Angry,125
112141,444169.770398468,1,445082.837115001,0,0.913066716532805,0,Angry,126
112141,449421.043902978,1,450032.885367779,0,0.611841464800935,0,Angry,127
112141,456423.60047682,1,457103.550141507,1,0.679949664686515,1,Angry,128
112141,458190.953666739,1,458796.164396376,0,0.605210729637474,1,Angry,129
112141,461692.213823837,1,462342.552349958,1,0.650338526120526,1,Angry,130
112141,463443.60155677,1,464106.15659634,0,0.662555039570492,0,Angry,131
112141,465210.116734098,1,465910.743253666,1,0.700626519568206,1,Angry,132
112141,468711.449313782,1,469475.983979159,1,0.764534665377287,1,Neutral,133
112141,473963.461885966,1,474647.350043617,0,0.683888157650654,0,Neutral,134
112141,475714.691433026,1,476367.140303144,0,0.652448870117834,0,Neutral,135
112141,482716.559416211,1,483430.957982198,1,0.714398565987125,1,Neutral,136
112141,486217.944036788,1,486790.133688054,1,0.57218965126609,1,Neutral,137
112141,487969.174071326,1,488394.267689909,1,0.425093618583342,0,Neutral,138
112141,489735.845198445,1,490516.653007954,0,0.780807809508755,0,Angry,139
112141,494987.78842448,1,495613.217051846,1,0.625428627365851,1,Angry,140
112141,498489.187072964,1,499018.282051353,1,0.529094978389156,1,Angry,141
112141,501990.311878269,1,502545.057736683,0,0.55474585841439,0,Angry,142
112141,503741.406646668,1,504402.944757544,0,0.661538110876456,0,Angry,143
112141,505508.298846632,1,506085.14218911,0,0.576843342477689,0,Angry,144
112141,510760.225950384,1,511419.598406916,1,0.659372456531622,1,Neutral,145
112141,516012.19613452,1,516636.892293907,0,0.624696159387357,0,Neutral,146
112141,519513.47002467,1,520112.391512759,0,0.598921488089371,0,Neutral,147
112141,521280.791818272,1,521955.354088694,0,0.674562270421768,0,Neutral,148
112141,528283.370534646,1,528946.345678817,0,0.662975144170923,0,Neutral,149
112141,530034.584624919,1,530556.05941779,0,0.521474792871391,0,Neutral,150
112141,533535.292281671,1,534193.820265251,1,0.658527983579668,1,Angry,151
112141,537036.644671101,1,537666.912911643,0,0.630268240541569,0,Angry,152
112141,540537.893365174,1,541176.989063135,1,0.639095697961282,1,Angry,153
112141,545789.804703862,1,546428.949310624,1,0.639144606761518,1,Angry,154
112141,547541.106064063,1,548280.868591447,0,0.739762527383631,0,Angry,155
112141,549307.806818765,1,549980.042874736,1,0.672236055971123,1,Angry,156
112141,554559.735896505,1,555232.749515878,0,0.673013619372854,0,Neutral,157
112141,558060.983796009,1,558675.719843296,1,0.614736047287355,1,Neutral,158
112141,559812.343891531,1,560439.242443703,1,0.626898552171886,1,Neutral,159
112141,563312.9228475,1,564005.876074128,0,0.692953226627782,0,Neutral,160
112141,565064.235254298,1,565704.141300204,1,0.63990604590578,1,Neutral,161
112141,566830.892340484,1,567615.460277092,1,0.784567936608219,1,Neutral,162
112141,577318.106722454,1,577909.454069352,0,0.591347346898518,0,Angry,163
112141,580819.408203043,1,581376.769755077,0,0.557361552033806,0,Angry,164
112141,582570.605663423,1,583159.496988691,0,0.588891325267963,0,Angry,165
112141,584337.304331248,1,585084.226225898,0,0.746921894649509,0,Angry,166
112141,589589.30014052,1,590087.347561231,0,0.498047420710907,0,Angry,167
112141,591340.610759241,1,592070.492681521,1,0.72988192227995,1,Angry,168
112141,598342.519632912,1,599055.683492866,1,0.713163859953871,1,Neutral,169
112141,600093.718735716,1,600676.151789062,1,0.582433053346234,1,Neutral,170
112141,603594.472809015,1,604273.908848803,0,0.679436039787717,0,Neutral,171
112141,605345.746704691,1,605993.558556514,1,0.647811851822655,1,Neutral,172
112141,607112.37774142,1,607838.276004263,1,0.72589826284314,1,Neutral,173
112141,612364.406188794,1,613086.377589453,1,0.721971400659066,1,Neutral,174
112141,615865.597381436,1,616472.116193727,0,0.606518812291441,0,Angry,175
112141,617616.880416823,1,618285.085436066,0,0.668205019242596,0,Angry,176
112141,621117.544362036,1,621788.85165249,1,0.671307290453697,1,Angry,177
112141,622868.82961811,1,623497.680079733,0,0.628850461623399,0,Angry,178
112141,626369.504543607,1,627036.937537745,0,0.667432994138449,0,Angry,179
112141,629870.793235312,1,630436.045742762,0,0.565252507450292,0,Angry,180
112141,640357.987850165,1,640988.525301072,0,0.630537450906937,0,Neutral,181
112141,643859.232143914,1,644348.261628609,0,0.489029484694707,0,Neutral,182
112141,647360.504285855,1,648055.061800312,1,0.694557514456566,1,Neutral,183
112141,652612.469339044,1,653163.274294737,0,0.550804955692729,0,Neutral,184
112141,654363.716874223,1,655353.081105607,0,0.989364231384126,0,Neutral,185
112141,656130.457676291,1,656793.826917839,1,0.66336924154812,1,Neutral,186
112141,657897.71362332,1,658535.605606584,0,0.637891983263893,1,Angry,187
112141,663149.693607926,1,663824.230588328,1,0.674536980402307,1,Angry,188
112141,664901.029161026,1,665598.264966746,1,0.697235805719509,1,Angry,189
112141,671902.9002392,1,672566.145165684,1,0.66324492648372,1,Angry,190
112141,675404.21534903,1,675991.234078825,1,0.587018729795236,1,Angry,191
112141,677155.484239673,1,678172.071665515,0,1.01658742584218,0,Angry,192
112141,678922.230975152,1,679575.12367483,1,0.652892699678312,1,Neutral,193
112141,680673.471394738,1,681278.95600821,0,0.605484613471781,0,Neutral,194
112141,685924.72351497,1,686517.722826975,0,0.592999312005355,0,Neutral,195
112141,689425.980623655,1,690038.292406402,1,0.612311782746925,1,Neutral,196
112141,692927.334151059,1,693633.559595808,1,0.706225444749231,1,Neutral,197
112141,698179.241987408,1,698768.349883755,1,0.589107896346948,1,Neutral,198
112141,701680.533662002,1,702299.772672047,0,0.619239010045538,0,Angry,199
112141,706932.449770866,1,707556.326521937,0,0.623876751070726,0,Angry,200
112141,708683.647504786,1,709357.367704908,1,0.67372020012245,1,Angry,201
112141,713935.089506799,1,714576.192390614,0,0.641102883814601,0,Angry,202
112141,715686.329274704,1,716411.76157769,1,0.725432302986039,1,Angry,203
112141,717452.998258501,1,718136.747924372,1,0.68374966587068,1,Angry,204
112141,724455.603403659,1,725097.671539995,1,0.642068136335816,1,Neutral,205
112141,727956.829280231,1,728613.846049459,0,0.657016769227688,0,Neutral,206
112141,731458.151768932,1,732444.989953621,0,0.986838184688822,0,Neutral,207
112141,733209.427684778,1,733877.492937299,0,0.668065252521192,0,Neutral,208
112141,734976.124854645,1,735487.849552192,0,0.511724697546801,0,Neutral,209
112141,738477.402375812,1,738852.818810318,0,0.375416434506304,1,Neutral,210
112141,743729.333025321,1,744284.788092522,0,0.555455067200819,0,Neutral,211
112141,745480.592165229,1,746127.822072273,0,0.64722990704386,0,Neutral,212
112141,747247.349027216,1,747861.467634254,1,0.614118607037817,1,Neutral,213
112141,752499.334117113,1,753110.907481892,0,0.611573364779237,0,Neutral,214
112141,754266.543610097,1,754921.325272652,1,0.654781662555062,1,Neutral,215
112141,759518.476715941,1,760119.765572638,0,0.601288856697385,0,Neutral,216
120061,6055.68105641669,1,6835.7962707275,1,0.780115214310807,1,Neutral,1
120061,7856.27577788567,1,8416.99201687804,0,0.560716238992371,0,Neutral,2
120061,11407.5085258558,1,12125.1345747137,1,0.71762604885789,1,Neutral,3
120061,18426.7146735505,1,19126.7589590562,1,0.700044285505654,1,Neutral,4
120061,20227.4448499489,1,20906.9086833474,0,0.679463833398462,0,Neutral,5
120061,25496.0037059843,1,26707.2334284598,0,1.2112297224755,0,Neutral,6
120061,29030.561722065,1,29741.0222074862,0,0.710460485421183,0,Angry,7
120061,32548.4805819686,1,33257.0399803432,1,0.70855939837456,1,Angry,8
120061,34315.759845982,1,34946.4505697719,0,0.630690723789899,0,Angry,9
120061,36099.7508038382,1,36777.9284266243,1,0.678177622786134,1,Angry,10
120061,39601.0675610921,1,40362.1113547822,1,0.761043793690078,1,Angry,11
120061,43119.0010396808,1,43974.4821999077,1,0.855481160226882,1,Angry,12
120061,53606.0998756646,1,54318.7913387567,1,0.712691463092124,1,Neutral,13
120061,57107.3540906346,1,57649.3021504103,0,0.541948059775721,0,Neutral,14
120061,60642.0704602778,1,61086.476690468,0,0.444406230190216,1,Neutral,15
120061,62426.0288963359,1,63443.1624893921,0,1.01713359305616,0,Neutral,16
120061,65943.972763443,1,66710.9788306157,0,0.767006067172682,0,Neutral,17
120061,67727.8372575953,1,68491.5049820996,0,0.763667724504339,0,Neutral,18
120061,69495.3120281669,1,70092.0718994107,1,0.59675987124379,1,Angry,19
120061,74763.7709469621,1,75447.8500838771,1,0.684079136914981,1,Angry,20
120061,78264.9970226606,1,78889.475756571,1,0.624478733910408,1,Angry,21
120061,81783.5026856446,1,82408.6038283461,0,0.625101142701504,1,Angry,22
120061,87034.7961874425,1,87817.3272831334,0,0.782531095690894,1,Angry,23
120061,88835.4645379657,1,89464.2991762286,0,0.628834638262939,0,Angry,24
120061,92370.0766948099,1,93225.7280346718,0,0.855651339861928,0,Neutral,25
120061,94121.3697766305,1,94802.5650155715,1,0.681195238941044,1,Neutral,26
120061,99372.579764118,1,100068.976631261,1,0.696396867142685,1,Neutral,27
120061,101156.600725092,1,101740.433326623,1,0.58383260153071,1,Neutral,28
120061,102940.634979297,1,103911.128252555,1,0.970493273257627,1,Neutral,29
120061,106441.799662518,1,107174.330469277,1,0.73253080675911,1,Neutral,30
120061,111693.754612054,1,112403.329293025,0,0.709574680971156,0,Angry,31
120061,113477.776818751,1,114162.61769944,0,0.684840880689342,0,Angry,32
120061,115261.667573723,1,115942.164703352,0,0.680497129628522,0,Angry,33
120061,120513.668120799,1,121266.970680529,0,0.753302559730335,0,Angry,34
120061,124031.520402057,1,124747.512508141,1,0.715992106083751,1,Angry,35
120061,127533.204730271,1,128163.903972812,0,0.630699242540868,0,Angry,36
120061,134535.283911789,1,135221.286681508,0,0.686002769719023,0,Neutral,37
120061,136319.2798028,1,136943.294413591,0,0.624014610790735,0,Neutral,38
120061,138086.664909393,1,138728.982754483,0,0.642317845089943,0,Neutral,39
120061,143338.460470027,1,144041.605666141,1,0.703145196114434,1,Neutral,40
120061,146839.760721066,1,147569.199786064,1,0.729439064997801,1,Neutral,41
120061,150357.71295338,1,151440.289576746,1,1.08257662336639,1,Neutral,42
120061,155626.234570372,1,156272.135695706,1,0.645901125334029,1,Angry,43
120061,160894.833792782,1,161561.661851531,0,0.666828058749466,0,Angry,44
120061,162678.812768259,1,163477.177956321,0,0.79836518806222,0,Angry,45
120061,164462.76142366,1,165182.628851733,0,0.719867428072961,0,Angry,46
120061,169731.597461979,1,170495.368644981,1,0.763771183001983,1,Angry,48
120061,180235.152490063,1,180903.364231666,1,0.668211741603416,1,Angry,49
120061,182002.488233924,1,182560.287324894,0,0.557799090970075,0,Angry,50
120061,183786.420650728,1,184402.689858179,0,0.616269207450649,0,Angry,51
120061,187287.659198649,1,187902.489688452,1,0.614830489802524,1,Angry,52
120061,189071.687091617,1,189705.375363434,0,0.633688271816936,0,Angry,53
120061,192589.619455529,1,193542.697171863,0,0.953077716333733,1,Angry,54
120061,199592.102399871,1,200228.724101332,1,0.636621701460856,1,Neutral,55
120061,201376.15551911,1,201968.720648754,0,0.592565129644296,0,Neutral,56
120061,203160.070472119,1,203828.995086581,0,0.668924614461575,0,Neutral,57
120061,206661.364149566,1,207218.169158506,0,0.556805008940311,0,Neutral,58
120061,210179.301968446,1,211062.557879114,0,0.883255910667969,0,Neutral,59
120061,215447.888036172,1,216103.252610452,1,0.655364574279549,1,Neutral,60
120061,217215.135714258,1,217776.633343596,0,0.56149762933841,0,Angry,61
120061,218966.558941294,1,219744.320015631,0,0.77776107433677,0,Angry,62
120061,225968.343485812,1,226587.906274398,1,0.619562788586423,1,Angry,63
120061,227735.650198345,1,228475.983823373,1,0.740333625028143,1,Angry,64
120061,231236.877766463,1,232389.585934312,0,1.15270816784885,0,Angry,65
120061,236488.871109585,1,237397.895867723,1,0.909024758138054,1,Angry,66
120061,238256.201158885,1,238927.959684543,0,0.671758525658486,0,Angry,67
120061,240023.431533825,1,240645.121852242,1,0.621690318417037,1,Angry,68
120061,243524.673838648,1,244168.433415829,1,0.643759577180695,1,Angry,69
120061,250527.211881333,1,251153.925723613,1,0.626713842279569,0,Angry,70
120061,252294.525201798,1,252931.814957745,0,0.637289755947364,0,Angry,71
120061,257546.414837357,1,258261.2749103,1,0.71486007294344,1,Angry,72
120061,261047.667879233,1,261799.663336057,1,0.75199545682405,1,Neutral,73
120061,262799.113141659,1,263722.392094242,1,0.923278952582798,1,Neutral,74
120061,264565.596001532,1,265304.194119528,1,0.738598117996298,1,Neutral,75
120061,268066.852526772,1,268938.127009201,1,0.87127448242926,1,Neutral,76
120061,269818.21096875,1,270520.908153244,1,0.702697184493998,1,Neutral,77
120061,276820.074039164,1,277442.53620331,0,0.622462164146418,0,Neutral,78
120061,280321.330136927,1,281019.054021165,1,0.697723884237814,1,Angry,79
120061,282088.668962332,1,282714.490607349,0,0.625821645016549,0,Angry,80
120061,289091.143231615,1,289741.287899205,1,0.650144667590328,1,Angry,81
120061,290858.442037601,1,291466.397205809,0,0.607955168208049,0,Angry,82
120061,297860.976150497,1,298454.833239391,1,0.593857088893885,1,Angry,83
120061,299612.300228146,1,300383.84925458,0,0.771549026434077,1,Angry,84
120061,303112.946384603,1,304149.142562178,0,1.03619617757463,0,Neutral,85
120061,304880.133375963,1,305525.185393552,0,0.645052017588576,0,Neutral,86
120061,311882.726335027,1,312526.630352837,1,0.643904017809546,1,Neutral,87
120061,315383.957222308,1,315998.77045712,0,0.614813234812289,0,Neutral,88
120061,318885.265140696,1,319536.745185062,0,0.651480044366035,0,Neutral,89
120061,320652.521630017,1,321305.145955942,0,0.652624325924495,0,Neutral,90
120061,322419.815716784,1,323147.184413473,0,0.727368696688733,0,Angry,91
120061,329422.379648072,1,330212.170324496,1,0.789790676424047,1,Angry,92
120061,334674.19695398,1,335320.071196027,0,0.64587424204743,0,Angry,93
120061,336425.557856221,1,337240.194646078,0,0.814636789857352,0,Angry,94
120061,338192.201465184,1,338815.842346663,0,0.623640881478786,0,Angry,95
120061,341693.446766293,1,342363.848317525,1,0.670401551232149,1,Angry,96
120061,343460.794626737,1,344115.438349773,1,0.654643723035988,1,Neutral,97
120061,346962.111356361,1,348117.977404508,0,1.15586604814744,0,Neutral,98
120061,350463.289553458,1,351481.721476473,0,1.01843192301469,0,Neutral,99
120061,353964.523639909,1,354724.807663402,1,0.76028402349347,1,Neutral,100
120061,359216.508938334,1,360100.793625344,0,0.884284687010339,0,Neutral,101
120061,362717.797404351,1,363430.036717625,1,0.712239313273923,0,Neutral,102
120061,364485.057557816,1,365292.669239423,1,0.807611681606679,1,Angry,103
120061,367986.288880863,1,368668.427360103,1,0.682138479239948,1,Angry,104
120061,373238.185838396,1,373922.488003806,0,0.684302165409492,0,Angry,105
120061,376739.447217453,1,377505.084659775,0,0.765637442322157,0,Angry,106
120061,380240.686844131,1,380746.52539363,1,0.505838549499342,1,Angry,107
120061,383741.966874287,1,384329.846213296,0,0.587879339009349,0,Angry,108
120061,385509.258134495,1,386130.263659329,0,0.621005524833512,0,Neutral,109
120061,389010.55078726,1,389731.240391242,0,0.720689603981853,0,Neutral,110
120061,390777.925216798,1,391389.040406242,0,0.61111518944375,0,Neutral,111
120061,392545.185877078,1,393181.442433895,1,0.63625655681733,1,Neutral,112
120061,397797.012304073,1,398485.155530952,1,0.688143226878543,1,Neutral,113
120061,404783.390866282,1,405616.0210786,0,0.832630212317512,1,Neutral,114
120061,406550.21982301,1,407428.146648668,1,0.877926825658069,1,Neutral,115
120061,408301.536888931,1,409075.636810777,0,0.774099921846297,0,Neutral,116
120061,417070.684454523,1,417854.919200543,1,0.784234746020287,1,Neutral,118
120061,424073.177560816,1,424954.544773374,1,0.881367212558223,1,Neutral,119
120061,425824.60006197,1,426909.136308304,1,1.08453624633409,1,Neutral,120
120061,427591.152246524,1,428101.361965605,0,0.510209719080944,0,Angry,121
120061,429358.475986296,1,430085.141970894,0,0.726665984598163,0,Angry,122
120061,436360.980981421,1,437000.628695821,1,0.639647714399616,1,Angry,124
120061,443363.473245391,1,443961.730190608,1,0.598256945217436,1,Angry,125
120061,445114.8496639,1,445700.211426226,1,0.585361762325978,1,Angry,126
120061,450366.034837989,1,451276.470490671,1,0.910435652681917,1,Angry,127
120061,457368.599941582,1,458020.853545532,0,0.652253603950317,0,Angry,128
120061,459135.859386138,1,459847.652704393,1,0.711793318255164,1,Angry,129
120061,462637.093793098,1,463195.731567771,1,0.55863777467265,0,Angry,130
120061,464404.464460996,1,465048.285896813,1,0.643821435817226,1,Angry,131
120061,466171.763617489,1,467112.719842351,0,0.940956224861555,0,Angry,132
120061,469673.00065207,1,470427.738125969,0,0.75473747389944,0,Neutral,133
120061,474924.894599107,1,475605.354174314,1,0.680459575207147,1,Neutral,134
120061,476692.1796011,1,477291.415621657,1,0.599236020556826,1,Neutral,135
120061,483694.766718769,1,484353.295904037,1,0.658529185267631,1,Neutral,136
120061,487195.997985372,1,487801.339822852,1,0.605341837479791,1,Neutral,137
120061,488963.30950475,1,489594.648562643,0,0.63133905789291,0,Neutral,138
120061,490730.641569468,1,491858.710397992,1,1.12806882852374,1,Angry,139
120061,495982.531982617,1,496767.89839035,1,0.785366407733294,0,Angry,140
120061,499483.774493481,1,499964.749546669,0,0.480975053187925,1,Angry,141
120061,502985.001947921,1,503688.686956624,1,0.70368500870344,1,Angry,142
120061,504736.172402673,1,505313.046838921,1,0.576874436247512,1,Angry,143
120061,506502.966331158,1,507002.442339163,0,0.4994760080048,0,Angry,144
120061,511754.879005475,1,512429.288616404,1,0.674409610928851,1,Neutral,145
120061,517006.773060269,1,517782.173160527,1,0.775400100257772,1,Neutral,146
120061,520508.006613854,1,521046.199010054,1,0.53819239619968,1,Neutral,147
120061,522259.298870324,1,522957.436363564,1,0.698137493240472,1,Neutral,148
120061,529261.177363853,1,530026.176321015,1,0.764998957161559,1,Neutral,149
120061,531028.57338512,1,531777.508610325,1,0.748935225204914,1,Neutral,150
120061,534529.740338745,1,535180.137759279,0,0.650397420533816,0,Angry,151
120061,538031.032100242,1,538650.297274884,0,0.619265174641856,0,Angry,152
120061,541532.376902036,1,542259.678427217,0,0.727301525180927,1,Angry,153
120061,546784.238952504,1,547441.298878219,1,0.657059925714508,1,Angry,154
120061,548551.635166392,1,549247.10135269,0,0.695466186297825,0,Angry,155
120061,550318.896394668,1,551096.751517878,0,0.777855123210466,0,Angry,156
120061,555570.685989177,1,556240.13282415,0,0.669446834973292,0,Neutral,157
120061,559071.968290921,1,560295.148772632,0,1.22318048171094,0,Neutral,158
120061,560839.306805686,1,561391.746010413,0,0.552439204727067,0,Neutral,159
120061,564340.618674387,1,565046.385155932,1,0.705766481545172,1,Neutral,160
120061,566107.874782018,1,566775.862370582,0,0.667987588564283,0,Neutral,161
120061,567875.199973554,1,568568.519588943,0,0.69331961538922,0,Neutral,162
120061,578362.295895353,1,579905.09533762,1,1.54279944226693,1,Angry,163
120061,581863.542518759,1,582528.229747343,0,0.664687228583731,0,Angry,164
120061,583630.832621661,1,584161.649472857,0,0.530816851196229,1,Angry,165
120061,585398.112328545,1,586030.212083427,0,0.632099754881696,0,Angry,166
120061,590650.008210083,1,591363.211325968,0,0.713203115884564,0,Angry,167
120061,592417.435713073,1,593004.632104583,1,0.587196391510428,1,Angry,168
120061,599419.867940019,1,600459.816828697,1,1.03994888867834,1,Neutral,169
120061,601187.188388258,1,601766.702267246,0,0.579513878988102,0,Neutral,170
120061,604688.415824541,1,605405.404443708,0,0.716988619166543,0,Neutral,171
120061,613458.356604578,1,614139.069087457,1,0.680712482879171,1,Neutral,174
120061,616959.562162568,1,617672.371618768,1,0.712809456200339,1,Angry,175
120061,618710.861031707,1,619390.434165788,1,0.679573134080856,1,Angry,176
120061,622211.411558061,1,622776.509996172,0,0.565098438110552,0,Angry,177
120061,623962.711839888,1,624567.890841416,0,0.605179001527489,0,Angry,178
120061,627463.318293881,1,628237.787274765,0,0.77446898088383,1,Angry,179
120061,630964.637064579,1,631525.116462796,1,0.560479398216587,1,Angry,180
120061,641451.741305798,1,642136.734974955,1,0.684993669157266,1,Neutral,181
120061,644953.055526215,1,645631.200008684,1,0.678144482468721,0,Neutral,182
120061,648454.277074526,1,648976.326411601,0,0.522049337075208,0,Neutral,183
120061,653706.189325313,1,654369.988217346,1,0.663798892033519,1,Neutral,184
120061,655457.523698327,1,656088.492289232,0,0.630968590904959,0,Neutral,185
120061,657224.27510608,1,657989.545024019,0,0.765269917938625,0,Neutral,186
120061,658991.433458458,1,659907.433445038,1,0.915999986579642,1,Angry,187
120061,664243.3308336,1,664822.153183579,1,0.578822349978494,1,Angry,188
120061,665994.624161328,1,666760.785958389,0,0.76616179706098,0,Angry,189
120061,672996.437845327,1,673500.989960805,1,0.504552115477971,1,Angry,190
120061,676497.883326821,1,677392.475981559,0,0.894592654738342,0,Angry,191
120061,678265.042941499,1,679282.286261136,0,1.01724331963668,1,Angry,192
120061,680032.363098043,1,680743.856551686,0,0.711493453642586,0,Neutral,193
120061,681799.686433232,1,682453.236915772,1,0.653550482539693,0,Neutral,194
120061,687051.50692489,1,687813.473610503,0,0.761966685613035,0,Neutral,195
120061,690552.819138968,1,691348.302518286,1,0.79548337931768,1,Neutral,196
120061,694054.111195712,1,694806.385980099,0,0.752274784386624,0,Neutral,197
120061,699306.008959648,1,700021.923607937,0,0.715914648288628,0,Neutral,198
120061,702807.241488551,1,703414.980710251,0,0.607739221699885,0,Angry,199
120061,708059.120575337,1,708872.128885283,0,0.813008309946395,1,Angry,200
120061,709826.569830706,1,710416.571393385,1,0.590001562678837,1,Angry,201
120061,715078.475911299,1,715799.556998504,0,0.721081087204511,0,Angry,202
120061,716845.640120467,1,717521.644229456,0,0.676004108988913,0,Angry,203
120061,718597.003167198,1,719214.212209342,0,0.617209042143775,0,Angry,204
120061,725598.789397546,1,726213.936234098,1,0.615146836552187,1,Neutral,205
120061,729100.039768776,1,729713.268217899,1,0.613228449123097,1,Neutral,206
120061,734368.644533387,1,734997.222459315,1,0.628577925927704,1,Neutral,208
120061,736119.890375256,1,736784.852312046,0,0.664961936790263,1,Neutral,209
120061,739620.509093852,1,740242.381181937,0,0.621872088084696,0,Neutral,210
120061,744872.416628182,1,745770.760271091,0,0.898343642908731,0,Neutral,211
120061,746639.71420976,1,747185.438699886,0,0.545724490126246,0,Neutral,212
120061,748391.002714854,1,748957.783477997,1,0.566780763143091,1,Neutral,213
120061,753642.315744809,1,754250.310565352,1,0.607994820542634,1,Neutral,214
120061,755393.547148378,1,756029.859159967,1,0.636312011588831,1,Neutral,215
120061,760644.819027658,1,761266.420443897,1,0.621601416239282,1,Neutral,216
120065,6015.77870509617,1,6717.23339135652,1,0.701454686260347,1,Neutral,1
120065,7783.03659684149,1,8429.28692978406,1,0.646250332942565,1,Neutral,2
120065,11284.2354257205,1,12119.0799918689,0,0.834844566148404,0,Neutral,3
120065,18270.813081268,1,18890.4814527111,1,0.619668371443116,1,Neutral,4
120065,20037.412236182,1,20597.4307546567,1,0.560018518474659,1,Neutral,5
120065,25289.2530166136,1,26349.4389947385,1,1.06018597812486,1,Neutral,6
120065,28790.6686374814,1,29520.7486301397,1,0.730079992658291,1,Angry,7
120065,32291.870868019,1,33123.9438742121,1,0.832073006193084,1,Angry,8
120065,34043.190344863,1,34745.8294260441,0,0.702639081181143,0,Angry,9
120065,35809.7546503412,1,37049.0756065791,0,1.23932095623788,1,Angry,10
120065,39311.1312062112,1,39973.3143909341,0,0.662183184722933,0,Angry,11
120065,42812.2761039207,1,43628.9752422567,0,0.816699138335956,0,Angry,12
120065,53299.3617414061,1,54020.579742014,0,0.721218000607863,0,Neutral,13
120065,56800.7367720952,1,58027.9228891599,0,1.22718611706474,0,Neutral,14
120065,60301.8920922687,1,60928.191438225,0,0.626299345956337,0,Neutral,15
120065,62053.3005470757,1,62488.0915100632,0,0.434790962987521,0,Neutral,16
120065,65553.8587111748,1,66214.3809143191,0,0.660522203144312,0,Neutral,17
120065,67321.1680465922,1,68145.0827375102,1,0.823914690917998,1,Neutral,18
120065,69088.4337213387,1,69932.1599647914,0,0.843726243452649,0,Angry,19
120065,74340.2853848674,1,74911.535387433,1,0.571250002565648,1,Angry,20
120065,77841.6572680947,1,78631.7143388317,1,0.790057070736977,1,Angry,21
120065,81342.8414494744,1,82519.9361279194,0,1.17709467844498,0,Angry,22
120065,86594.7394052426,1,87203.6572084927,1,0.608917803250093,1,Angry,23
120065,88362.1777325171,1,89181.8178782461,0,0.819640145728976,0,Angry,24
120065,91863.3059969133,1,92771.5509589614,1,0.908244962048106,1,Neutral,25
120065,93630.6410776524,1,94369.985916944,0,0.73934483929156,0,Neutral,26
120065,98882.4815032347,1,99679.3982332532,1,0.796916730018522,1,Neutral,27
120065,100649.840128361,1,101468.243429367,0,0.818403301006125,0,Neutral,28
120065,102401.216544502,1,103063.189423991,0,0.661972879489389,0,Neutral,29
120065,105901.767986595,1,106513.529765499,0,0.611761778904023,0,Neutral,30
120065,111153.595406695,1,111692.189327286,0,0.538593920591127,0,Angry,31
120065,112904.976134314,1,113505.500109336,1,0.600523975022399,1,Angry,32
120065,114671.507995753,1,115377.701291509,1,0.706193295756413,1,Angry,33
120065,119923.446966808,1,120634.868778394,1,0.711421811586493,1,Angry,34
120065,123424.657695177,1,124237.610543247,0,0.812952848070039,0,Angry,35
120065,126925.987132273,1,127699.814945115,0,0.773827812841671,0,Angry,36
120065,133928.522695749,1,134976.807451835,1,1.04828475608554,1,Neutral,37
120065,135695.763370002,1,136212.942692433,1,0.517179322431271,1,Neutral,38
120065,137447.129989698,1,137943.383076571,1,0.496253086872952,1,Neutral,39
120065,142698.285736559,1,143325.547454282,1,0.62726171772313,1,Neutral,40
120065,146199.547907416,1,146852.151879439,1,0.652603972022538,1,Neutral,41
120065,149700.893920196,1,150355.792269101,0,0.654898348904855,0,Neutral,42
120065,154952.680708278,1,155614.917768516,0,0.66223706023753,0,Angry,43
120065,160204.661290641,1,160751.510752446,0,0.546849461805366,0,Angry,44
120065,161971.89406782,1,162605.725510861,1,0.633831443040574,1,Angry,45
120065,163723.271183397,1,164369.137102078,0,0.645865918680676,0,Angry,46
120065,167223.855821857,1,168149.439847719,0,0.925584025861754,0,Angry,47
120065,179478.293780072,1,180168.715181154,1,0.690421401082305,1,Angry,49
120065,181245.558488555,1,181853.639455766,0,0.60808096721099,0,Angry,50
120065,183012.795632472,1,183845.671466013,1,0.832875833540544,1,Angry,51
120065,186514.130181135,1,187154.064307057,0,0.639934125922155,1,Angry,52
120065,188265.397645522,1,189096.377088736,0,0.830979443214252,0,Angry,53
120065,191766.025728744,1,192792.821034392,1,1.026795305648,1,Angry,54
120065,198768.494722258,1,199489.069328628,0,0.720574606369919,0,Neutral,55
120065,200519.82142516,1,201536.596320856,0,1.01677489569644,0,Neutral,56
120065,202286.433551611,1,202914.563480523,0,0.628129928911716,0,Neutral,57
120065,205787.703659013,1,206522.637602577,1,0.734933943563548,1,Neutral,58
120065,209288.971739551,1,209960.533912776,0,0.671562173224869,0,Neutral,59
120065,214540.87155285,1,215476.844807714,1,0.9359732548639,1,Neutral,60
120065,216308.188613641,1,216997.662492945,0,0.68947387930387,0,Angry,61
120065,218059.53761126,1,218585.357075868,0,0.525819464607834,0,Angry,62
120065,225061.303962549,1,225870.025769399,1,0.808721806849877,1,Angry,63
120065,226812.700361165,1,227352.928062697,0,0.540227701531898,0,Angry,64
120065,230313.216120972,1,230908.126173588,1,0.594910052615596,1,Angry,65
120065,235565.115130236,1,236345.227396811,0,0.780112266575103,0,Angry,66
120065,237332.359837693,1,237916.480574864,1,0.584120737170742,1,Angry,67
120065,239099.759619021,1,239895.730551379,1,0.795970932357595,1,Angry,68
120065,249603.564889263,1,250277.936819856,0,0.674371930593217,0,Angry,70
120065,251370.77381536,1,251915.504050966,1,0.544730235605733,1,Angry,71
120065,256622.700362349,1,257281.493059322,0,0.658792696972931,0,Angry,72
120065,260124.014819201,1,260797.139829168,1,0.673125009966549,1,Neutral,73
120065,261891.355079397,1,262439.827717715,1,0.548472638318199,1,Neutral,74
120065,263658.617556158,1,264409.221001235,1,0.750603445077315,1,Neutral,75
120065,267159.870881045,1,268035.690846942,0,0.875819965896604,0,Neutral,76
120065,268927.136981689,1,269535.122524837,0,0.607985543148301,0,Neutral,77
120065,275929.636044634,1,276886.16337237,1,0.956527327736316,1,Neutral,78
120065,279430.918227964,1,280166.051706158,0,0.735133478193893,0,Angry,79
120065,281182.32798928,1,281845.046325001,0,0.662718335721351,0,Angry,80
120065,288184.044028546,1,288725.258690255,1,0.541214661709033,1,Angry,81
120065,289935.4169779,1,290675.939306564,0,0.74052232866385,0,Angry,82
120065,296937.216625419,1,297676.856094606,0,0.739639469186543,0,Angry,83
120065,298688.617790619,1,299330.609031092,0,0.641991240472533,0,Angry,84
120065,302189.171968881,1,302930.333149396,1,0.741161180515308,1,Neutral,85
120065,303940.56118841,1,304818.617087631,0,0.878055899221275,0,Neutral,86
120065,310942.24932326,1,311691.3661338,0,0.749116810540436,0,Neutral,87
120065,314443.571847308,1,315243.315997032,1,0.799744149723498,1,Neutral,88
120065,317944.804529756,1,318554.164757823,0,0.609360228066682,0,Neutral,89
120065,319696.204212799,1,320320.924513414,0,0.624720300615358,0,Neutral,90
120065,321462.82542126,1,322249.781122334,1,0.786955701074039,1,Angry,91
120065,328465.280336061,1,329482.49644756,1,1.01721611149923,1,Angry,92
120065,333717.134723521,1,334816.822565887,1,1.0996878423664,1,Angry,93
120065,335468.473245785,1,336130.865954994,0,0.662392709209118,0,Angry,94
120065,337235.140119283,1,337820.315848224,0,0.585175728940929,0,Angry,95
120065,340736.354912038,1,341490.062758588,1,0.753707846550387,1,Angry,96
120065,342503.720826771,1,343228.434717995,0,0.724713891224295,0,Neutral,97
120065,346005.090439989,1,346952.640699909,0,0.947550259920186,0,Neutral,98
120065,349506.178890218,1,350550.966259715,0,1.04478736949718,0,Neutral,99
120065,353007.484102831,1,353559.695993637,1,0.552211890805862,1,Neutral,100
120065,358259.365915918,1,359253.463753666,0,0.994097837748239,0,Neutral,101
120065,361760.73972062,1,362362.241700513,0,0.60150197989319,0,Neutral,102
120065,363527.929144217,1,364137.484497941,0,0.60955535372434,0,Angry,103
120065,367029.190282893,1,367659.972450829,0,0.630782167935628,0,Angry,104
120065,372281.023124016,1,373237.07264266,1,0.956049518644402,1,Angry,105
120065,375782.28522106,1,376409.645094277,1,0.627359873217356,1,Angry,106
120065,379283.584818056,1,379966.2618614,1,0.68267704334372,1,Angry,107
120065,382784.846901286,1,383334.863909579,1,0.550017008292954,1,Angry,108
120065,384552.153995113,1,385335.295061713,0,0.783141066600336,0,Neutral,109
120065,388053.367437546,1,388869.71388254,1,0.816346444994444,1,Neutral,110
120065,389820.677656732,1,390442.951250262,1,0.622273593529826,1,Neutral,111
120065,391588.060173991,1,392183.408807683,1,0.595348633692134,1,Neutral,112
120065,396839.986619932,1,397478.401647937,1,0.638415028005082,1,Neutral,113
120065,403842.496350065,1,404500.675726572,0,0.658179376507294,0,Neutral,114
120065,405609.789149664,1,406210.40881755,0,0.600619667886349,0,Neutral,115
120065,407377.106090066,1,407918.655405432,1,0.541549315365846,1,Neutral,116
120065,414379.620681121,1,415027.296430192,1,0.647675749071466,1,Neutral,117
120065,416146.873408408,1,416723.543267139,1,0.576669858731329,1,Neutral,118
120065,423149.351724315,1,423824.151471302,1,0.674799746987293,1,Neutral,119
120065,424900.652951486,1,425450.387011096,0,0.549734059609938,0,Neutral,120
120065,426667.313927143,1,427286.653123186,0,0.61933919604338,0,Angry,121
120065,428418.675102922,1,429112.851136978,0,0.694176034056058,0,Angry,122
120065,431919.215169708,1,432609.541419871,1,0.690326250162791,1,Angry,123
120065,435420.484132435,1,436066.90254631,0,0.646418413875042,0,Angry,124
120065,442422.996984768,1,443309.320921108,0,0.886323936340283,0,Angry,125
120065,444190.357748464,1,444783.152357044,1,0.592794608580356,1,Angry,126
120065,449442.334398276,1,450076.40627953,0,0.634071881253796,0,Angry,127
120065,456444.782040443,1,457438.784698063,1,0.994002657619829,1,Angry,128
120065,458212.036678153,1,458857.791824652,1,0.645755146498675,1,Angry,129
120065,461713.3093591,1,462300.197853536,0,0.586888494436454,0,Angry,130
120065,463464.642761509,1,464123.236693942,0,0.658593932432646,0,Angry,131
120065,465231.2059531,1,465791.457142575,0,0.560251189475297,0,Angry,132
120065,468732.454549294,1,469303.398745989,1,0.570944196694647,1,Neutral,133
120065,473984.346558278,1,474618.65347251,0,0.634306914232264,0,Neutral,134
120065,475735.635573739,1,476457.90741039,0,0.722271836650907,0,Neutral,135
120065,482737.524344476,1,483402.502536442,0,0.664978191965958,0,Neutral,136
120065,486238.919002791,1,486886.575503953,1,0.647656501162448,1,Neutral,137
120065,488006.151009485,1,488730.736549081,1,0.724585539595922,1,Neutral,138
120065,489773.437881246,1,490374.901308087,0,0.601463426841423,0,Angry,139
120065,495025.320606125,1,495648.342542442,0,0.623021936316625,0,Angry,140
120065,502027.849769289,1,503045.046864183,1,1.01719709489355,1,Angry,142
120065,503779.120143913,1,504457.441763668,0,0.678321619754715,0,Angry,143
120065,505545.73993653,1,506240.87396772,0,0.695134031190421,1,Angry,144
120065,510797.655045451,1,511496.180517629,1,0.698525472178473,1,Neutral,145
120065,516049.545716744,1,516728.64960035,1,0.679103883606265,1,Neutral,146
120065,519550.924995362,1,520257.604438576,0,0.706679443214263,0,Neutral,147
120065,521318.189792656,1,521952.313479536,0,0.634123686880048,0,Neutral,148
120065,528304.189935148,1,529148.166614959,0,0.843976679810672,0,Neutral,149
120065,530071.31795561,1,530587.34760309,0,0.516029647479532,0,Neutral,150
120065,533572.526086356,1,534591.29461608,0,1.0187685297241,0,Angry,151
120065,537073.787867234,1,538132.628144403,0,1.05884027716925,0,Angry,152
120065,540575.020336929,1,541344.231366466,1,0.769211029536673,1,Angry,153
120065,545826.92451973,1,546424.94405065,0,0.598019530919963,0,Angry,154
120065,547578.210175372,1,548149.384263875,0,0.571174088503118,0,Angry,155
120065,549344.956653523,1,549995.545106909,1,0.650588453386095,1,Angry,156
120065,554596.808643481,1,555372.083635883,0,0.775274992401712,0,Neutral,157
120065,558098.069509408,1,558715.857136654,0,0.617787627246464,0,Neutral,158
120065,559865.426855262,1,560826.128089143,0,0.960701233880827,0,Neutral,159
120065,563366.656752596,1,564049.158266725,1,0.682501514128875,1,Neutral,160
120065,565117.797274884,1,565864.973846543,1,0.74717657165858,1,Neutral,161
120065,566884.518424927,1,567532.31917765,1,0.647800752722542,1,Neutral,162
120065,577371.644280374,1,578287.668278685,1,0.916023998310557,1,Angry,163
120065,580872.868555381,1,581585.45712284,1,0.712588567458792,1,Angry,164
120065,582624.182478972,1,583250.748038067,1,0.626565559094888,1,Angry,165
120065,584390.843514232,1,585007.250478198,1,0.616406963966438,1,Angry,166
120065,589642.695975086,1,590419.185874315,1,0.776489899229142,1,Angry,167
120065,591394.139934161,1,591959.153032796,1,0.565013098635478,1,Angry,168
120065,598395.85018453,1,599014.640852665,0,0.618790668135043,0,Neutral,169
120065,600147.055247546,1,600777.883316558,0,0.63082806901203,0,Neutral,170
120065,603647.907939309,1,604383.071607716,0,0.73516366840736,0,Neutral,171
120065,605415.039177097,1,606157.372921329,1,0.74233374423231,1,Neutral,172
120065,607166.396145997,1,607779.225103119,0,0.612828957122052,0,Neutral,173
120065,612417.579413611,1,613011.383485102,1,0.593804071490886,1,Neutral,174
120065,615918.836207652,1,616862.829534986,0,0.943993327333592,0,Angry,175
120065,617686.140180069,1,618311.472504509,0,0.625332324440358,0,Angry,176
120065,621187.510802575,1,622155.563940366,0,0.968053137791227,0,Angry,177
120065,622954.758799591,1,623673.531003722,0,0.718772204131121,0,Angry,178
120065,626456.027262608,1,627024.249617323,0,0.568222354715108,0,Angry,179
120065,629957.324811819,1,630616.641417897,0,0.659316606077831,0,Angry,180
120065,640444.407060277,1,641911.63633475,1,1.46722927447327,1,Neutral,181
120065,643945.644615883,1,644459.147563619,1,0.513502947735717,1,Neutral,182
120065,647446.901512945,1,648034.688186953,1,0.587786674008355,1,Neutral,183
120065,652698.920893873,1,653334.802587361,0,0.635881693487638,0,Neutral,184
120065,654466.14010231,1,655028.360067417,1,0.562219965107157,1,Neutral,185
120065,656217.424837476,1,656746.018160073,1,0.528593322596978,1,Neutral,186
120065,657984.041019629,1,658589.160506341,1,0.605119486711919,1,Angry,187
120065,663235.938158336,1,663948.970032801,1,0.713031874464708,1,Angry,188
120065,664987.239143151,1,665655.012558269,0,0.667773415118339,0,Angry,189
120065,671989.107806684,1,672809.396401378,0,0.820288594694226,0,Angry,190
120065,675490.353872357,1,676169.362354005,1,0.679008481647703,1,Angry,191
120065,677257.718748989,1,677987.448283185,0,0.729729534196202,0,Angry,192
120065,679025.035298622,1,679795.395231836,0,0.770359933214146,0,Neutral,193
120065,680792.333744627,1,681395.682942368,1,0.603349197740667,1,Neutral,194
120065,686044.218454531,1,686766.224135672,0,0.722005681140814,0,Neutral,195
120065,689545.3717135,1,690607.725714534,1,1.06235400103417,1,Neutral,196
120065,693046.693844016,1,693660.255281096,0,0.613561437080381,0,Neutral,197
120065,698298.571968486,1,699535.212202631,0,1.23664023414534,0,Neutral,198
120065,701799.786229559,1,702464.44164328,0,0.664655413721106,0,Angry,199
120065,707051.691308364,1,707623.560561996,1,0.57186925363238,1,Angry,200
120065,708802.921933554,1,709368.549681662,1,0.565627748108353,1,Angry,201
120065,714054.255103869,1,714520.928466885,1,0.466673363015987,1,Angry,202
120065,715805.513750311,1,716475.947217848,0,0.670433467536699,0,Angry,203
120065,717572.27341354,1,718292.420141151,0,0.720146727610729,0,Angry,204
120065,724574.724468022,1,725180.885084094,0,0.606160616072011,0,Neutral,205
120065,728075.938918558,1,728600.251045799,0,0.524312127240584,0,Neutral,206
120065,731577.199714621,1,732505.6733792,1,0.928473664578632,1,Neutral,207
120065,733328.607510253,1,733991.980090943,1,0.663372580689727,1,Neutral,208
120065,735095.220887952,1,735876.469441122,0,0.781248553170124,0,Neutral,209
120065,738596.492580532,1,739613.737509819,1,1.01724492928677,1,Neutral,210
120065,743848.352138371,1,744432.837636916,1,0.584485498545459,1,Neutral,211
120065,745599.525306003,1,746432.796946086,1,0.833271640082588,1,Neutral,212
120065,747366.309973673,1,748034.118516107,1,0.667808542433893,1,Neutral,213
120065,752618.160533182,1,753658.018825958,0,1.03985829277639,0,Neutral,214
120065,754369.500652465,1,755306.968944965,0,0.937468292500009,0,Neutral,215
120065,759620.651030405,1,760342.064333108,0,0.721413302703411,0,Neutral,216
120120,6008.11673245285,1,6871.63305400519,0,0.863516321552343,0,Neutral,1
120120,7775.45915704215,1,8655.11987045385,0,0.879660713411697,0,Neutral,2
120120,11276.686479755,1,12232.9008885082,0,0.956214408753247,0,Neutral,3
120120,18262.7187419576,1,19506.0229693778,0,1.24330422742021,0,Neutral,4
120120,20029.9599350296,1,20637.6009240328,0,0.607640989003183,0,Neutral,5
120120,25281.8621063684,1,26142.1093634792,1,0.860247257110826,1,Neutral,6
120120,28783.1683709236,1,29619.3586190428,0,0.836190248119176,1,Angry,7
120120,32284.3295003671,1,33261.1623609609,0,0.976832860593811,0,Angry,8
120120,34035.7079598652,1,34752.171246043,0,0.716463286177794,0,Angry,9
120120,35802.2415443701,1,36594.3587856133,0,0.792117241243206,0,Angry,10
120120,39303.5288171118,1,40140.1757983154,1,0.836646981203572,1,Angry,11
120120,42804.8111365484,1,43499.6213814309,1,0.694810244882494,1,Angry,12
120120,53291.9511142864,1,53951.8025317155,0,0.659851417429127,1,Neutral,13
120120,56793.2411291278,1,57750.1113208814,0,0.956870191753573,0,Neutral,14
120120,60294.5307141222,1,61155.3659434134,1,0.860835229291166,1,Neutral,15
120120,62045.8789067126,1,62834.2261902695,1,0.788347283556875,1,Neutral,16
120120,65546.4288179012,1,66316.4739020944,0,0.77004508419316,0,Neutral,17
120120,67297.7986919075,1,67976.4171129601,0,0.678618421052626,0,Neutral,18
120120,69064.3594724211,1,69942.139553417,1,0.877780080995944,1,Angry,19
120120,74316.3035883732,1,75272.4750724306,1,0.956171484057384,1,Angry,20
120120,77817.5665240422,1,79102.0360953005,1,1.28446957125828,1,Angry,21
120120,81318.8732539689,1,82210.6437141301,1,0.891770460161191,1,Angry,22
120120,86570.7444427779,1,87471.6669807299,1,0.90092253795205,1,Angry,23
120120,88322.143037585,1,88910.045962044,0,0.587902924459035,0,Angry,24
120120,91822.6522190996,1,92643.3413663528,1,0.820689147253172,1,Neutral,25
120120,93590.0442501559,1,94607.1692815359,1,1.01712503138001,1,Neutral,26
120120,98841.8849604888,1,99546.66185296,0,0.704776892471156,0,Neutral,27
120120,100609.273773417,1,101384.772474403,1,0.775498700986005,1,Neutral,28
120120,102360.615431071,1,103006.736611986,0,0.646121180914648,0,Neutral,29
120120,105861.090782171,1,106542.651234675,0,0.681560452503691,0,Neutral,30
120120,111113.070801197,1,112782.146411232,0,1.66907561003529,0,Angry,31
120120,114630.996696613,1,116051.962544505,1,1.42096584789181,1,Angry,33
120120,119882.833594768,1,120638.26696652,0,0.755433371752471,0,Angry,34
120120,123384.148648489,1,124139.038885161,0,0.754890236672378,0,Angry,35
120120,126885.473422513,1,127574.194415542,1,0.688720993029303,1,Angry,36
120120,133887.997813662,1,134708.262713838,0,0.820264900176058,0,Neutral,37
120120,135655.283792916,1,136519.257253717,1,0.863973460800655,1,Neutral,38
120120,137422.55184175,1,138275.764443488,1,0.853212601738342,1,Neutral,39
120120,142674.450486686,1,143498.694933806,1,0.824244447119767,1,Neutral,40
120120,146175.797775374,1,146835.606779661,0,0.659809004286624,0,Neutral,41
120120,149677.003020375,1,150265.908597728,0,0.588905577352707,1,Neutral,42
120120,154928.960242514,1,155736.096299922,1,0.807136057407653,1,Angry,43
120120,160180.872590449,1,160938.428062807,0,0.757555472357984,0,Angry,44
120120,161932.167603988,1,162731.38461669,0,0.799217012701993,0,Angry,45
120120,163698.84123728,1,164542.888389001,1,0.844047151721345,1,Angry,46
120120,167200.090744279,1,167841.822337041,0,0.641731592762488,0,Angry,47
120120,168967.387886527,1,169932.605921546,0,0.965218035019294,0,Angry,48
120120,179454.616134456,1,180139.928992366,0,0.685312857909739,0,Angry,49
120120,181221.989742881,1,182239.044000694,0,1.01705425781343,0,Angry,50
120120,182989.131148706,1,183908.903566664,0,0.919772417958069,0,Angry,51
120120,186490.484782866,1,187276.259384004,1,0.785774601138342,1,Angry,52
120120,188257.73534968,1,189091.112038477,0,0.833376688797143,0,Angry,53
120120,191759.003181025,1,192668.932025767,1,0.909928844741982,1,Angry,54
120120,198761.562478981,1,199793.194719474,1,1.03163224049323,1,Neutral,55
120120,200512.964582429,1,201232.756602828,1,0.719792020398978,1,Neutral,56
